# Random transverse-field Ising model
# L=22, J=1=gamma, W_J=0.2, W=4.5
# High-T dynamical energy conductivity sigma^E(omega); via MCLM
# omega/J sigma^E(omega)

0.000000 0.001914
0.000250 0.001914
0.000500 0.001915
0.000750 0.001927
0.001000 0.001954
0.001250 0.002001
0.001500 0.002068
0.001750 0.002150
0.002000 0.002233
0.002250 0.002304
0.002500 0.002364
0.002750 0.002436
0.003000 0.002545
0.003250 0.002703
0.003500 0.002900
0.003750 0.003090
0.004000 0.003217
0.004250 0.003263
0.004500 0.003280
0.004750 0.003328
0.005000 0.003413
0.005250 0.003484
0.005500 0.003480
0.005750 0.003404
0.006000 0.003322
0.006250 0.003297
0.006500 0.003354
0.006750 0.003482
0.007000 0.003636
0.007250 0.003762
0.007500 0.003850
0.007750 0.003958
0.008000 0.004161
0.008250 0.004509
0.008500 0.005017
0.008750 0.005635
0.009000 0.006213
0.009250 0.006563
0.009500 0.006633
0.009750 0.006554
0.010000 0.006476
0.010250 0.006413
0.010500 0.006248
0.010750 0.005905
0.011000 0.005473
0.011250 0.005105
0.011500 0.004897
0.011750 0.004859
0.012000 0.004929
0.012250 0.004978
0.012500 0.004885
0.012750 0.004651
0.013000 0.004394
0.013250 0.004216
0.013500 0.004158
0.013750 0.004198
0.014000 0.004275
0.014250 0.004312
0.014500 0.004280
0.014750 0.004227
0.015000 0.004225
0.015250 0.004320
0.015500 0.004494
0.015750 0.004668
0.016000 0.004744
0.016250 0.004701
0.016500 0.004621
0.016750 0.004609
0.017000 0.004723
0.017250 0.004960
0.017500 0.005259
0.017750 0.005530
0.018000 0.005713
0.018250 0.005803
0.018500 0.005853
0.018750 0.005965
0.019000 0.006215
0.019250 0.006574
0.019500 0.006902
0.019750 0.007041
0.020000 0.006968
0.020250 0.006829
0.020500 0.006775
0.020750 0.006845
0.021000 0.006976
0.021250 0.007109
0.021500 0.007258
0.021750 0.007524
0.022000 0.008021
0.022250 0.008770
0.022500 0.009595
0.022750 0.010112
0.023000 0.009991
0.023250 0.009308
0.023500 0.008445
0.023750 0.007726
0.024000 0.007274
0.024250 0.007049
0.024500 0.006933
0.024750 0.006804
0.025000 0.006605
0.025250 0.006378
0.025500 0.006224
0.025750 0.006219
0.026000 0.006366
0.026250 0.006589
0.026500 0.006775
0.026750 0.006881
0.027000 0.006984
0.027250 0.007228
0.027500 0.007723
0.027750 0.008506
0.028000 0.009494
0.028250 0.010420
0.028500 0.010915
0.028750 0.010863
0.029000 0.010564
0.029250 0.010395
0.029500 0.010490
0.029750 0.010678
0.030000 0.010613
0.030250 0.010120
0.030500 0.009389
0.030750 0.008731
0.031000 0.008328
0.031250 0.008228
0.031500 0.008404
0.031750 0.008777
0.032000 0.009247
0.032250 0.009781
0.032500 0.010485
0.032750 0.011545
0.033000 0.013137
0.033250 0.015358
0.033500 0.018104
0.033750 0.020844
0.034000 0.022604
0.034250 0.022679
0.034500 0.021408
0.034750 0.019649
0.035000 0.017865
0.035250 0.016135
0.035500 0.014569
0.035750 0.013384
0.036000 0.012736
0.036250 0.012681
0.036500 0.013206
0.036750 0.014212
0.037000 0.015414
0.037250 0.016318
0.037500 0.016536
0.037750 0.016203
0.038000 0.015839
0.038250 0.015834
0.038500 0.016192
0.038750 0.016592
0.039000 0.016726
0.039250 0.016668
0.039500 0.016810
0.039750 0.017500
0.040000 0.018790
0.040250 0.020352
0.040500 0.021613
0.040750 0.022216
0.041000 0.022313
0.041250 0.022257
0.041500 0.022078
0.041750 0.021422
0.042000 0.020076
0.042250 0.018343
0.042500 0.016799
0.042750 0.015851
0.043000 0.015604
0.043250 0.015929
0.043500 0.016524
0.043750 0.017031
0.044000 0.017117
0.044250 0.016517
0.044500 0.015328
0.044750 0.013991
0.045000 0.012839
0.045250 0.011868
0.045500 0.010918
0.045750 0.009943
0.046000 0.009053
0.046250 0.008370
0.046500 0.007936
0.046750 0.007737
0.047000 0.007719
0.047250 0.007791
0.047500 0.007853
0.047750 0.007848
0.048000 0.007822
0.048250 0.007885
0.048500 0.008126
0.048750 0.008565
0.049000 0.009145
0.049250 0.009753
0.049500 0.010311
0.049750 0.010866
0.050000 0.011590
0.050250 0.012651
0.050500 0.014053
0.050750 0.015488
0.051000 0.016366
0.051250 0.016291
0.051500 0.015550
0.051750 0.014797
0.052000 0.014503
0.052250 0.014847
0.052500 0.015797
0.052750 0.017098
0.053000 0.018240
0.053250 0.018771
0.053500 0.018808
0.053750 0.018903
0.054000 0.019427
0.054250 0.020240
0.054500 0.020814
0.054750 0.020759
0.055000 0.020292
0.055250 0.019985
0.055500 0.020215
0.055750 0.020983
0.056000 0.022107
0.056250 0.023410
0.056500 0.024671
0.056750 0.025718
0.057000 0.026767
0.057250 0.028182
0.057500 0.029788
0.057750 0.030749
0.058000 0.030369
0.058250 0.029000
0.058500 0.027703
0.058750 0.027253
0.059000 0.027690
0.059250 0.028336
0.059500 0.028232
0.059750 0.027087
0.060000 0.025570
0.060250 0.024456
0.060500 0.023945
0.060750 0.023711
0.061000 0.023358
0.061250 0.022789
0.061500 0.022114
0.061750 0.021566
0.062000 0.021503
0.062250 0.022240
0.062500 0.023934
0.062750 0.026516
0.063000 0.029584
0.063250 0.032483
0.063500 0.034940
0.063750 0.037475
0.064000 0.040633
0.064250 0.044032
0.064500 0.046382
0.064750 0.046408
0.065000 0.044015
0.065250 0.040564
0.065500 0.037566
0.065750 0.035427
0.066000 0.033465
0.066250 0.030875
0.066500 0.027709
0.066750 0.024686
0.067000 0.022397
0.067250 0.021030
0.067500 0.020494
0.067750 0.020505
0.068000 0.020639
0.068250 0.020535
0.068500 0.020156
0.068750 0.019824
0.069000 0.019929
0.069250 0.020645
0.069500 0.021846
0.069750 0.023189
0.070000 0.024464
0.070250 0.025962
0.070500 0.028242
0.070750 0.031598
0.071000 0.035622
0.071250 0.038945
0.071500 0.039847
0.071750 0.037916
0.072000 0.034478
0.072250 0.031188
0.072500 0.029009
0.072750 0.028220
0.073000 0.028710
0.073250 0.030223
0.073500 0.032541
0.073750 0.035349
0.074000 0.037789
0.074250 0.038741
0.074500 0.038027
0.074750 0.036435
0.075000 0.034382
0.075250 0.031642
0.075500 0.028307
0.075750 0.025061
0.076000 0.022528
0.076250 0.020897
0.076500 0.019991
0.076750 0.019373
0.077000 0.018592
0.077250 0.017562
0.077500 0.016583
0.077750 0.015981
0.078000 0.015921
0.078250 0.016450
0.078500 0.017540
0.078750 0.019083
0.079000 0.020916
0.079250 0.022876
0.079500 0.024794
0.079750 0.026604
0.080000 0.028390
0.080250 0.029919
0.080500 0.030468
0.080750 0.029632
0.081000 0.027995
0.081250 0.026562
0.081500 0.025861
0.081750 0.025682
0.082000 0.025375
0.082250 0.024534
0.082500 0.023388
0.082750 0.022447
0.083000 0.022108
0.083250 0.022463
0.083500 0.023200
0.083750 0.023740
0.084000 0.023731
0.084250 0.023284
0.084500 0.022676
0.084750 0.022201
0.085000 0.022067
0.085250 0.022129
0.085500 0.021928
0.085750 0.021114
0.086000 0.019797
0.086250 0.018461
0.086500 0.017562
0.086750 0.017273
0.087000 0.017464
0.087250 0.017741
0.087500 0.017680
0.087750 0.017245
0.088000 0.016819
0.088250 0.016783
0.088500 0.017247
0.088750 0.017995
0.089000 0.018553
0.089250 0.018536
0.089500 0.018071
0.089750 0.017656
0.090000 0.017692
0.090250 0.018280
0.090500 0.019209
0.090750 0.020033
0.091000 0.020391
0.091250 0.020308
0.091500 0.020079
0.091750 0.020063
0.092000 0.020549
0.092250 0.021648
0.092500 0.023292
0.092750 0.025386
0.093000 0.028017
0.093250 0.031557
0.093500 0.036579
0.093750 0.043600
0.094000 0.052676
0.094250 0.062641
0.094500 0.070351
0.094750 0.072001
0.095000 0.066959
0.095250 0.058500
0.095500 0.050023
0.095750 0.042884
0.096000 0.037197
0.096250 0.032917
0.096500 0.029991
0.096750 0.028173
0.097000 0.027068
0.097250 0.026253
0.097500 0.025390
0.097750 0.024447
0.098000 0.023690
0.098250 0.023274
0.098500 0.023083
0.098750 0.023032
0.099000 0.023260
0.099250 0.023831
0.099500 0.024419
0.099750 0.024528
0.100000 0.024095
0.100250 0.023588
0.100500 0.023446
0.100750 0.023801
0.101000 0.024712
0.101250 0.026356
0.101500 0.028823
0.101750 0.031749
0.102000 0.034255
0.102250 0.035671
0.102500 0.036426
0.102750 0.037553
0.103000 0.039460
0.103250 0.041458
0.103500 0.042373
0.103750 0.041875
0.104000 0.040775
0.104250 0.039628
0.104500 0.037959
0.104750 0.035242
0.105000 0.031944
0.105250 0.028980
0.105500 0.026834
0.105750 0.025518
0.106000 0.024799
0.106250 0.024250
0.106500 0.023389
0.106750 0.022050
0.107000 0.020554
0.107250 0.019368
0.107500 0.018777
0.107750 0.018890
0.108000 0.019761
0.108250 0.021435
0.108500 0.023897
0.108750 0.026920
0.109000 0.029957
0.109250 0.032474
0.109500 0.034498
0.109750 0.036318
0.110000 0.037646
0.110250 0.037832
0.110500 0.036904
0.110750 0.035732
0.111000 0.035118
0.111250 0.035044
0.111500 0.034830
0.111750 0.033979
0.112000 0.032511
0.112250 0.030604
0.112500 0.028619
0.112750 0.027104
0.113000 0.026330
0.113250 0.025984
0.113500 0.025335
0.113750 0.023922
0.114000 0.022054
0.114250 0.020372
0.114500 0.019283
0.114750 0.018886
0.115000 0.019068
0.115250 0.019531
0.115500 0.019902
0.115750 0.020074
0.116000 0.020357
0.116250 0.021176
0.116500 0.022773
0.116750 0.025091
0.117000 0.027640
0.117250 0.029514
0.117500 0.029947
0.117750 0.029053
0.118000 0.027692
0.118250 0.026533
0.118500 0.025588
0.118750 0.024578
0.119000 0.023437
0.119250 0.022333
0.119500 0.021523
0.119750 0.021264
0.120000 0.021698
0.120250 0.022780
0.120500 0.024206
0.120750 0.025472
0.121000 0.026287
0.121250 0.026988
0.121500 0.028254
0.121750 0.030632
0.122000 0.034397
0.122250 0.039451
0.122500 0.045016
0.122750 0.049558
0.123000 0.051900
0.123250 0.052439
0.123500 0.052140
0.123750 0.051072
0.124000 0.048978
0.124250 0.046125
0.124500 0.042957
0.124750 0.039991
0.125000 0.037909
0.125250 0.037201
0.125500 0.037910
0.125750 0.039653
0.126000 0.041697
0.126250 0.043091
0.126500 0.043189
0.126750 0.042385
0.127000 0.041688
0.127250 0.041620
0.127500 0.042003
0.127750 0.042510
0.128000 0.043182
0.128250 0.044580
0.128500 0.047486
0.128750 0.052363
0.129000 0.058891
0.129250 0.065449
0.129500 0.069330
0.129750 0.068895
0.130000 0.065445
0.130250 0.061713
0.130500 0.059386
0.130750 0.058395
0.131000 0.057607
0.131250 0.056170
0.131500 0.054425
0.131750 0.053452
0.132000 0.054148
0.132250 0.056869
0.132500 0.061458
0.132750 0.067380
0.133000 0.074277
0.133250 0.082821
0.133500 0.094683
0.133750 0.111584
0.134000 0.134334
0.134250 0.161498
0.134500 0.187256
0.134750 0.201040
0.135000 0.194858
0.135250 0.172625
0.135500 0.145648
0.135750 0.122060
0.136000 0.104297
0.136250 0.091569
0.136500 0.082233
0.136750 0.074966
0.137000 0.069003
0.137250 0.064272
0.137500 0.061074
0.137750 0.059232
0.138000 0.057761
0.138250 0.055644
0.138500 0.052988
0.138750 0.050846
0.139000 0.050136
0.139250 0.051201
0.139500 0.053788
0.139750 0.056922
0.140000 0.059126
0.140250 0.059675
0.140500 0.059552
0.140750 0.060465
0.141000 0.063511
0.141250 0.068727
0.141500 0.074886
0.141750 0.079711
0.142000 0.081686
0.142250 0.081840
0.142500 0.082331
0.142750 0.083906
0.143000 0.085635
0.143250 0.086653
0.143500 0.087225
0.143750 0.088076
0.144000 0.090289
0.144250 0.095496
0.144500 0.105170
0.144750 0.119794
0.145000 0.137849
0.145250 0.154703
0.145500 0.164378
0.145750 0.165585
0.146000 0.163545
0.146250 0.163540
0.146500 0.165578
0.146750 0.165429
0.147000 0.160608
0.147250 0.154128
0.147500 0.150577
0.147750 0.151087
0.148000 0.152318
0.148250 0.148863
0.148500 0.138005
0.148750 0.122578
0.149000 0.107743
0.149250 0.096653
0.149500 0.089675
0.149750 0.085205
0.150000 0.080823
0.150250 0.075290
0.150500 0.069570
0.150750 0.065329
0.151000 0.063389
0.151250 0.063416
0.151500 0.064035
0.151750 0.063413
0.152000 0.060566
0.152250 0.056197
0.152500 0.051955
0.152750 0.049068
0.153000 0.047831
0.153250 0.047703
0.153500 0.047588
0.153750 0.046668
0.154000 0.045263
0.154250 0.044421
0.154500 0.044913
0.154750 0.046779
0.155000 0.049189
0.155250 0.050623
0.155500 0.050083
0.155750 0.048290
0.156000 0.046895
0.156250 0.047119
0.156500 0.049453
0.156750 0.053719
0.157000 0.058774
0.157250 0.062296
0.157500 0.062144
0.157750 0.058656
0.158000 0.054195
0.158250 0.050615
0.158500 0.048158
0.158750 0.045951
0.159000 0.043214
0.159250 0.040163
0.159500 0.037597
0.159750 0.036072
0.160000 0.035678
0.160250 0.036089
0.160500 0.036642
0.160750 0.036734
0.161000 0.036435
0.161250 0.036381
0.161500 0.037120
0.161750 0.038772
0.162000 0.040982
0.162250 0.043046
0.162500 0.044515
0.162750 0.045786
0.163000 0.047698
0.163250 0.050813
0.163500 0.055219
0.163750 0.060771
0.164000 0.067572
0.164250 0.076086
0.164500 0.086598
0.164750 0.099042
0.165000 0.113944
0.165250 0.133124
0.165500 0.158647
0.165750 0.190896
0.166000 0.226589
0.166250 0.258412
0.166500 0.278357
0.166750 0.280043
0.167000 0.260177
0.167250 0.224323
0.167500 0.184490
0.167750 0.149424
0.168000 0.121897
0.168250 0.101505
0.168500 0.087000
0.168750 0.077103
0.169000 0.070561
0.169250 0.065955
0.169500 0.061830
0.169750 0.057497
0.170000 0.053368
0.170250 0.050057
0.170500 0.047590
0.170750 0.045554
0.171000 0.043747
0.171250 0.042387
0.171500 0.041693
0.171750 0.041711
0.172000 0.042485
0.172250 0.043890
0.172500 0.045285
0.172750 0.045720
0.173000 0.044738
0.173250 0.042789
0.173500 0.040876
0.173750 0.039861
0.174000 0.040129
0.174250 0.041623
0.174500 0.043894
0.174750 0.046175
0.175000 0.047625
0.175250 0.047872
0.175500 0.047501
0.175750 0.047491
0.176000 0.048212
0.176250 0.049244
0.176500 0.050012
0.176750 0.050580
0.177000 0.051742
0.177250 0.054437
0.177500 0.059298
0.177750 0.066550
0.178000 0.075799
0.178250 0.085784
0.178500 0.094907
0.178750 0.102723
0.179000 0.110476
0.179250 0.118906
0.179500 0.125562
0.179750 0.126038
0.180000 0.119369
0.180250 0.109726
0.180500 0.101827
0.180750 0.097657
0.181000 0.096538
0.181250 0.096286
0.181500 0.095252
0.181750 0.093898
0.182000 0.093658
0.182250 0.095267
0.182500 0.098470
0.182750 0.102386
0.183000 0.106627
0.183250 0.111971
0.183500 0.119500
0.183750 0.130416
0.184000 0.146492
0.184250 0.168929
0.184500 0.195727
0.184750 0.219227
0.185000 0.228546
0.185250 0.220058
0.185500 0.202244
0.185750 0.186301
0.186000 0.177941
0.186250 0.176800
0.186500 0.177947
0.186750 0.175183
0.187000 0.166888
0.187250 0.156950
0.187500 0.148762
0.187750 0.141522
0.188000 0.132482
0.188250 0.121050
0.188500 0.109207
0.188750 0.099345
0.189000 0.093004
0.189250 0.090664
0.189500 0.091884
0.189750 0.095282
0.190000 0.098784
0.190250 0.100760
0.190500 0.101135
0.190750 0.101504
0.191000 0.103994
0.191250 0.109672
0.191500 0.118149
0.191750 0.127820
0.192000 0.135149
0.192250 0.135384
0.192500 0.127334
0.192750 0.115047
0.193000 0.102758
0.193250 0.091631
0.193500 0.081346
0.193750 0.072211
0.194000 0.065009
0.194250 0.060173
0.194500 0.057726
0.194750 0.057544
0.195000 0.059455
0.195250 0.063082
0.195500 0.067627
0.195750 0.072043
0.196000 0.075859
0.196250 0.079872
0.196500 0.085638
0.196750 0.093989
0.197000 0.103850
0.197250 0.112227
0.197500 0.116341
0.197750 0.116679
0.198000 0.116354
0.198250 0.116998
0.198500 0.116852
0.198750 0.113173
0.199000 0.106018
0.199250 0.098393
0.199500 0.093074
0.199750 0.090721
0.200000 0.090366
0.200250 0.090529
0.200500 0.089407
0.200750 0.086079
0.201000 0.081043
0.201250 0.075777
0.201500 0.071366
0.201750 0.068085
0.202000 0.065798
0.202250 0.064355
0.202500 0.063705
0.202750 0.063817
0.203000 0.064651
0.203250 0.066138
0.203500 0.068174
0.203750 0.070638
0.204000 0.073473
0.204250 0.076747
0.204500 0.080643
0.204750 0.085374
0.205000 0.091098
0.205250 0.097855
0.205500 0.105544
0.205750 0.113906
0.206000 0.122544
0.206250 0.130968
0.206500 0.138673
0.206750 0.145204
0.207000 0.150181
0.207250 0.153311
0.207500 0.154411
0.207750 0.153463
0.208000 0.150665
0.208250 0.146408
0.208500 0.141194
0.208750 0.135529
0.209000 0.129843
0.209250 0.124452
0.209500 0.119561
0.209750 0.115279
0.210000 0.111644
0.210250 0.108642
0.210500 0.106225
0.210750 0.104334
0.211000 0.102899
0.211250 0.101858
0.211500 0.101151
0.211750 0.100719
0.212000 0.100506
0.212250 0.100453
0.212500 0.100505
0.212750 0.100607
0.213000 0.100711
0.213250 0.100779
0.213500 0.100778
0.213750 0.100688
0.214000 0.100496
0.214250 0.100201
0.214500 0.099808
0.214750 0.099332
0.215000 0.098790
0.215250 0.098199
0.215500 0.097575
0.215750 0.096929
0.216000 0.096269
0.216250 0.095600
0.216500 0.094924
0.216750 0.094247
0.217000 0.093574
0.217250 0.092913
0.217500 0.092274
0.217750 0.091669
0.218000 0.091108
0.218250 0.090602
0.218500 0.090161
0.218750 0.089791
0.219000 0.089500
0.219250 0.089293
0.219500 0.089175
0.219750 0.089150
0.220000 0.089223
0.220250 0.089395
0.220500 0.089669
0.220750 0.090047
0.221000 0.090531
0.221250 0.091122
0.221500 0.091820
0.221750 0.092627
0.222000 0.093542
0.222250 0.094565
0.222500 0.095693
0.222750 0.096925
0.223000 0.098256
0.223250 0.099678
0.223500 0.101182
0.223750 0.102759
0.224000 0.104393
0.224250 0.106071
0.224500 0.107773
0.224750 0.109482
0.225000 0.111177
0.225250 0.112838
0.225500 0.114443
0.225750 0.115972
0.226000 0.117406
0.226250 0.118728
0.226500 0.119922
0.226750 0.120975
0.227000 0.121877
0.227250 0.122622
0.227500 0.123205
0.227750 0.123625
0.228000 0.123883
0.228250 0.123983
0.228500 0.123931
0.228750 0.123735
0.229000 0.123406
0.229250 0.122954
0.229500 0.122393
0.229750 0.121738
0.230000 0.121003
0.230250 0.120203
0.230500 0.119355
0.230750 0.118472
0.231000 0.117571
0.231250 0.116663
0.231500 0.115762
0.231750 0.114878
0.232000 0.114022
0.232250 0.113201
0.232500 0.112424
0.232750 0.111694
0.233000 0.111017
0.233250 0.110397
0.233500 0.109835
0.233750 0.109334
0.234000 0.108894
0.234250 0.108516
0.234500 0.108200
0.234750 0.107946
0.235000 0.107753
0.235250 0.107621
0.235500 0.107549
0.235750 0.107537
0.236000 0.107582
0.236250 0.107685
0.236500 0.107844
0.236750 0.108057
0.237000 0.108324
0.237250 0.108641
0.237500 0.109008
0.237750 0.109421
0.238000 0.109877
0.238250 0.110373
0.238500 0.110905
0.238750 0.111469
0.239000 0.112059
0.239250 0.112671
0.239500 0.113299
0.239750 0.113938
0.240000 0.114581
0.240250 0.115223
0.240500 0.115858
0.240750 0.116480
0.241000 0.117084
0.241250 0.117664
0.241500 0.118216
0.241750 0.118735
0.242000 0.119218
0.242250 0.119661
0.242500 0.120062
0.242750 0.120419
0.243000 0.120731
0.243250 0.120997
0.243500 0.121218
0.243750 0.121394
0.244000 0.121527
0.244250 0.121618
0.244500 0.121669
0.244750 0.121682
0.245000 0.121661
0.245250 0.121609
0.245500 0.121528
0.245750 0.121421
0.246000 0.121291
0.246250 0.121141
0.246500 0.120974
0.246750 0.120793
0.247000 0.120599
0.247250 0.120396
0.247500 0.120186
0.247750 0.119970
0.248000 0.119750
0.248250 0.119528
0.248500 0.119306
0.248750 0.119085
0.249000 0.118867
0.249250 0.118652
0.249500 0.118443
0.249750 0.118240
0.250000 0.118044
0.250250 0.117857
0.250500 0.117680
0.250750 0.117513
0.251000 0.117358
0.251250 0.117216
0.251500 0.117087
0.251750 0.116972
0.252000 0.116873
0.252250 0.116790
0.252500 0.116723
0.252750 0.116674
0.253000 0.116642
0.253250 0.116629
0.253500 0.116634
0.253750 0.116659
0.254000 0.116703
0.254250 0.116766
0.254500 0.116850
0.254750 0.116953
0.255000 0.117076
0.255250 0.117219
0.255500 0.117381
0.255750 0.117563
0.256000 0.117764
0.256250 0.117984
0.256500 0.118222
0.256750 0.118478
0.257000 0.118752
0.257250 0.119042
0.257500 0.119347
0.257750 0.119668
0.258000 0.120003
0.258250 0.120351
0.258500 0.120711
0.258750 0.121082
0.259000 0.121463
0.259250 0.121852
0.259500 0.122249
0.259750 0.122652
0.260000 0.123060
0.260250 0.123472
0.260500 0.123885
0.260750 0.124299
0.261000 0.124713
0.261250 0.125124
0.261500 0.125532
0.261750 0.125935
0.262000 0.126333
0.262250 0.126723
0.262500 0.127105
0.262750 0.127478
0.263000 0.127840
0.263250 0.128190
0.263500 0.128529
0.263750 0.128854
0.264000 0.129166
0.264250 0.129464
0.264500 0.129747
0.264750 0.130015
0.265000 0.130267
0.265250 0.130504
0.265500 0.130725
0.265750 0.130930
0.266000 0.131120
0.266250 0.131293
0.266500 0.131452
0.266750 0.131595
0.267000 0.131723
0.267250 0.131837
0.267500 0.131936
0.267750 0.132021
0.268000 0.132093
0.268250 0.132151
0.268500 0.132196
0.268750 0.132229
0.269000 0.132249
0.269250 0.132258
0.269500 0.132255
0.269750 0.132240
0.270000 0.132215
0.270250 0.132179
0.270500 0.132132
0.270750 0.132076
0.271000 0.132009
0.271250 0.131932
0.271500 0.131846
0.271750 0.131750
0.272000 0.131645
0.272250 0.131531
0.272500 0.131407
0.272750 0.131274
0.273000 0.131133
0.273250 0.130982
0.273500 0.130823
0.273750 0.130655
0.274000 0.130479
0.274250 0.130294
0.274500 0.130101
0.274750 0.129899
0.275000 0.129690
0.275250 0.129472
0.275500 0.129246
0.275750 0.129013
0.276000 0.128772
0.276250 0.128524
0.276500 0.128268
0.276750 0.128005
0.277000 0.127736
0.277250 0.127460
0.277500 0.127178
0.277750 0.126890
0.278000 0.126596
0.278250 0.126296
0.278500 0.125992
0.278750 0.125683
0.279000 0.125369
0.279250 0.125052
0.279500 0.124731
0.279750 0.124406
0.280000 0.124080
0.280250 0.123750
0.280500 0.123419
0.280750 0.123087
0.281000 0.122754
0.281250 0.122420
0.281500 0.122086
0.281750 0.121753
0.282000 0.121421
0.282250 0.121090
0.282500 0.120760
0.282750 0.120433
0.283000 0.120109
0.283250 0.119788
0.283500 0.119471
0.283750 0.119157
0.284000 0.118848
0.284250 0.118544
0.284500 0.118245
0.284750 0.117951
0.285000 0.117663
0.285250 0.117382
0.285500 0.117106
0.285750 0.116838
0.286000 0.116576
0.286250 0.116322
0.286500 0.116075
0.286750 0.115835
0.287000 0.115603
0.287250 0.115380
0.287500 0.115164
0.287750 0.114956
0.288000 0.114756
0.288250 0.114565
0.288500 0.114382
0.288750 0.114207
0.289000 0.114041
0.289250 0.113882
0.289500 0.113732
0.289750 0.113590
0.290000 0.113456
0.290250 0.113329
0.290500 0.113211
0.290750 0.113100
0.291000 0.112996
0.291250 0.112900
0.291500 0.112811
0.291750 0.112728
0.292000 0.112653
0.292250 0.112584
0.292500 0.112521
0.292750 0.112464
0.293000 0.112413
0.293250 0.112367
0.293500 0.112327
0.293750 0.112292
0.294000 0.112262
0.294250 0.112236
0.294500 0.112214
0.294750 0.112197
0.295000 0.112184
0.295250 0.112174
0.295500 0.112167
0.295750 0.112164
0.296000 0.112163
0.296250 0.112166
0.296500 0.112171
0.296750 0.112178
0.297000 0.112187
0.297250 0.112198
0.297500 0.112210
0.297750 0.112225
0.298000 0.112240
0.298250 0.112257
0.298500 0.112274
0.298750 0.112293
0.299000 0.112312
0.299250 0.112331
0.299500 0.112351
0.299750 0.112371
0.300000 0.112391
0.300250 0.112411
0.300500 0.112431
0.300750 0.112450
0.301000 0.112469
0.301250 0.112487
0.301500 0.112505
0.301750 0.112521
0.302000 0.112537
0.302250 0.112551
0.302500 0.112565
0.302750 0.112577
0.303000 0.112587
0.303250 0.112596
0.303500 0.112604
0.303750 0.112610
0.304000 0.112614
0.304250 0.112617
0.304500 0.112617
0.304750 0.112616
0.305000 0.112613
0.305250 0.112607
0.305500 0.112600
0.305750 0.112590
0.306000 0.112579
0.306250 0.112565
0.306500 0.112549
0.306750 0.112531
0.307000 0.112510
0.307250 0.112488
0.307500 0.112463
0.307750 0.112436
0.308000 0.112408
0.308250 0.112377
0.308500 0.112344
0.308750 0.112309
0.309000 0.112272
0.309250 0.112234
0.309500 0.112194
0.309750 0.112152
0.310000 0.112109
0.310250 0.112064
0.310500 0.112018
0.310750 0.111971
0.311000 0.111923
0.311250 0.111873
0.311500 0.111823
0.311750 0.111772
0.312000 0.111721
0.312250 0.111669
0.312500 0.111616
0.312750 0.111564
0.313000 0.111511
0.313250 0.111459
0.313500 0.111407
0.313750 0.111355
0.314000 0.111303
0.314250 0.111252
0.314500 0.111202
0.314750 0.111152
0.315000 0.111104
0.315250 0.111056
0.315500 0.111010
0.315750 0.110965
0.316000 0.110922
0.316250 0.110879
0.316500 0.110839
0.316750 0.110800
0.317000 0.110763
0.317250 0.110727
0.317500 0.110694
0.317750 0.110662
0.318000 0.110632
0.318250 0.110605
0.318500 0.110579
0.318750 0.110556
0.319000 0.110534
0.319250 0.110515
0.319500 0.110498
0.319750 0.110484
0.320000 0.110471
0.320250 0.110461
0.320500 0.110453
0.320750 0.110447
0.321000 0.110444
0.321250 0.110442
0.321500 0.110443
0.321750 0.110446
0.322000 0.110451
0.322250 0.110459
0.322500 0.110468
0.322750 0.110480
0.323000 0.110494
0.323250 0.110509
0.323500 0.110527
0.323750 0.110547
0.324000 0.110568
0.324250 0.110592
0.324500 0.110617
0.324750 0.110644
0.325000 0.110672
0.325250 0.110703
0.325500 0.110735
0.325750 0.110768
0.326000 0.110804
0.326250 0.110840
0.326500 0.110878
0.326750 0.110918
0.327000 0.110959
0.327250 0.111001
0.327500 0.111045
0.327750 0.111089
0.328000 0.111135
0.328250 0.111183
0.328500 0.111231
0.328750 0.111280
0.329000 0.111331
0.329250 0.111382
0.329500 0.111435
0.329750 0.111489
0.330000 0.111543
0.330250 0.111599
0.330500 0.111655
0.330750 0.111713
0.331000 0.111771
0.331250 0.111830
0.331500 0.111891
0.331750 0.111952
0.332000 0.112014
0.332250 0.112076
0.332500 0.112140
0.332750 0.112205
0.333000 0.112270
0.333250 0.112337
0.333500 0.112404
0.333750 0.112472
0.334000 0.112541
0.334250 0.112611
0.334500 0.112682
0.334750 0.112754
0.335000 0.112827
0.335250 0.112901
0.335500 0.112976
0.335750 0.113052
0.336000 0.113129
0.336250 0.113207
0.336500 0.113286
0.336750 0.113366
0.337000 0.113448
0.337250 0.113530
0.337500 0.113614
0.337750 0.113698
0.338000 0.113784
0.338250 0.113872
0.338500 0.113960
0.338750 0.114050
0.339000 0.114140
0.339250 0.114233
0.339500 0.114326
0.339750 0.114421
0.340000 0.114517
0.340250 0.114614
0.340500 0.114713
0.340750 0.114813
0.341000 0.114914
0.341250 0.115017
0.341500 0.115121
0.341750 0.115227
0.342000 0.115334
0.342250 0.115442
0.342500 0.115552
0.342750 0.115663
0.343000 0.115775
0.343250 0.115889
0.343500 0.116004
0.343750 0.116121
0.344000 0.116239
0.344250 0.116358
0.344500 0.116478
0.344750 0.116600
0.345000 0.116724
0.345250 0.116848
0.345500 0.116974
0.345750 0.117101
0.346000 0.117230
0.346250 0.117359
0.346500 0.117490
0.346750 0.117622
0.347000 0.117756
0.347250 0.117890
0.347500 0.118026
0.347750 0.118163
0.348000 0.118300
0.348250 0.118439
0.348500 0.118579
0.348750 0.118721
0.349000 0.118863
0.349250 0.119006
0.349500 0.119150
0.349750 0.119295
0.350000 0.119441
0.350250 0.119588
0.350500 0.119735
0.350750 0.119884
0.351000 0.120033
0.351250 0.120183
0.351500 0.120334
0.351750 0.120486
0.352000 0.120638
0.352250 0.120791
0.352500 0.120945
0.352750 0.121099
0.353000 0.121254
0.353250 0.121410
0.353500 0.121566
0.353750 0.121723
0.354000 0.121880
0.354250 0.122037
0.354500 0.122195
0.354750 0.122354
0.355000 0.122513
0.355250 0.122672
0.355500 0.122832
0.355750 0.122992
0.356000 0.123153
0.356250 0.123313
0.356500 0.123474
0.356750 0.123636
0.357000 0.123797
0.357250 0.123959
0.357500 0.124121
0.357750 0.124283
0.358000 0.124446
0.358250 0.124608
0.358500 0.124771
0.358750 0.124934
0.359000 0.125097
0.359250 0.125260
0.359500 0.125424
0.359750 0.125587
0.360000 0.125751
0.360250 0.125914
0.360500 0.126078
0.360750 0.126242
0.361000 0.126406
0.361250 0.126569
0.361500 0.126733
0.361750 0.126897
0.362000 0.127061
0.362250 0.127225
0.362500 0.127389
0.362750 0.127553
0.363000 0.127718
0.363250 0.127882
0.363500 0.128046
0.363750 0.128210
0.364000 0.128374
0.364250 0.128538
0.364500 0.128702
0.364750 0.128866
0.365000 0.129031
0.365250 0.129195
0.365500 0.129359
0.365750 0.129523
0.366000 0.129687
0.366250 0.129851
0.366500 0.130015
0.366750 0.130179
0.367000 0.130343
0.367250 0.130508
0.367500 0.130672
0.367750 0.130836
0.368000 0.131000
0.368250 0.131164
0.368500 0.131328
0.368750 0.131492
0.369000 0.131656
0.369250 0.131820
0.369500 0.131984
0.369750 0.132148
0.370000 0.132312
0.370250 0.132477
0.370500 0.132641
0.370750 0.132805
0.371000 0.132969
0.371250 0.133133
0.371500 0.133297
0.371750 0.133461
0.372000 0.133625
0.372250 0.133790
0.372500 0.133954
0.372750 0.134118
0.373000 0.134282
0.373250 0.134446
0.373500 0.134611
0.373750 0.134775
0.374000 0.134939
0.374250 0.135103
0.374500 0.135268
0.374750 0.135432
0.375000 0.135597
0.375250 0.135761
0.375500 0.135926
0.375750 0.136090
0.376000 0.136255
0.376250 0.136419
0.376500 0.136584
0.376750 0.136749
0.377000 0.136914
0.377250 0.137079
0.377500 0.137244
0.377750 0.137409
0.378000 0.137574
0.378250 0.137740
0.378500 0.137905
0.378750 0.138071
0.379000 0.138237
0.379250 0.138403
0.379500 0.138569
0.379750 0.138735
0.380000 0.138902
0.380250 0.139068
0.380500 0.139235
0.380750 0.139402
0.381000 0.139570
0.381250 0.139737
0.381500 0.139905
0.381750 0.140073
0.382000 0.140242
0.382250 0.140410
0.382500 0.140579
0.382750 0.140749
0.383000 0.140918
0.383250 0.141088
0.383500 0.141259
0.383750 0.141429
0.384000 0.141601
0.384250 0.141772
0.384500 0.141944
0.384750 0.142117
0.385000 0.142289
0.385250 0.142463
0.385500 0.142637
0.385750 0.142811
0.386000 0.142986
0.386250 0.143161
0.386500 0.143337
0.386750 0.143513
0.387000 0.143690
0.387250 0.143867
0.387500 0.144045
0.387750 0.144224
0.388000 0.144403
0.388250 0.144583
0.388500 0.144764
0.388750 0.144945
0.389000 0.145126
0.389250 0.145309
0.389500 0.145491
0.389750 0.145675
0.390000 0.145859
0.390250 0.146044
0.390500 0.146230
0.390750 0.146416
0.391000 0.146603
0.391250 0.146790
0.391500 0.146978
0.391750 0.147167
0.392000 0.147356
0.392250 0.147547
0.392500 0.147737
0.392750 0.147929
0.393000 0.148121
0.393250 0.148313
0.393500 0.148507
0.393750 0.148701
0.394000 0.148895
0.394250 0.149090
0.394500 0.149286
0.394750 0.149482
0.395000 0.149679
0.395250 0.149877
0.395500 0.150075
0.395750 0.150273
0.396000 0.150472
0.396250 0.150672
0.396500 0.150872
0.396750 0.151072
0.397000 0.151273
0.397250 0.151475
0.397500 0.151677
0.397750 0.151879
0.398000 0.152081
0.398250 0.152284
0.398500 0.152488
0.398750 0.152692
0.399000 0.152896
0.399250 0.153100
0.399500 0.153304
0.399750 0.153509
0.400000 0.153714
0.400250 0.153919
0.400500 0.154125
0.400750 0.154330
0.401000 0.154536
0.401250 0.154742
0.401500 0.154947
0.401750 0.155153
0.402000 0.155359
0.402250 0.155565
0.402500 0.155771
0.402750 0.155977
0.403000 0.156183
0.403250 0.156388
0.403500 0.156594
0.403750 0.156799
0.404000 0.157005
0.404250 0.157210
0.404500 0.157415
0.404750 0.157619
0.405000 0.157824
0.405250 0.158028
0.405500 0.158232
0.405750 0.158435
0.406000 0.158638
0.406250 0.158841
0.406500 0.159043
0.406750 0.159245
0.407000 0.159447
0.407250 0.159648
0.407500 0.159848
0.407750 0.160048
0.408000 0.160248
0.408250 0.160447
0.408500 0.160645
0.408750 0.160843
0.409000 0.161040
0.409250 0.161237
0.409500 0.161433
0.409750 0.161628
0.410000 0.161823
0.410250 0.162017
0.410500 0.162210
0.410750 0.162403
0.411000 0.162595
0.411250 0.162786
0.411500 0.162977
0.411750 0.163166
0.412000 0.163355
0.412250 0.163543
0.412500 0.163731
0.412750 0.163917
0.413000 0.164103
0.413250 0.164288
0.413500 0.164472
0.413750 0.164655
0.414000 0.164838
0.414250 0.165019
0.414500 0.165200
0.414750 0.165380
0.415000 0.165559
0.415250 0.165737
0.415500 0.165914
0.415750 0.166091
0.416000 0.166267
0.416250 0.166441
0.416500 0.166615
0.416750 0.166789
0.417000 0.166961
0.417250 0.167132
0.417500 0.167303
0.417750 0.167473
0.418000 0.167642
0.418250 0.167810
0.418500 0.167977
0.418750 0.168144
0.419000 0.168310
0.419250 0.168475
0.419500 0.168639
0.419750 0.168802
0.420000 0.168965
0.420250 0.169127
0.420500 0.169288
0.420750 0.169448
0.421000 0.169608
0.421250 0.169767
0.421500 0.169926
0.421750 0.170083
0.422000 0.170240
0.422250 0.170397
0.422500 0.170552
0.422750 0.170708
0.423000 0.170862
0.423250 0.171016
0.423500 0.171170
0.423750 0.171323
0.424000 0.171475
0.424250 0.171627
0.424500 0.171778
0.424750 0.171929
0.425000 0.172079
0.425250 0.172229
0.425500 0.172379
0.425750 0.172528
0.426000 0.172677
0.426250 0.172825
0.426500 0.172973
0.426750 0.173121
0.427000 0.173268
0.427250 0.173415
0.427500 0.173562
0.427750 0.173708
0.428000 0.173855
0.428250 0.174001
0.428500 0.174146
0.428750 0.174292
0.429000 0.174437
0.429250 0.174583
0.429500 0.174728
0.429750 0.174873
0.430000 0.175018
0.430250 0.175162
0.430500 0.175307
0.430750 0.175451
0.431000 0.175596
0.431250 0.175740
0.431500 0.175885
0.431750 0.176029
0.432000 0.176174
0.432250 0.176318
0.432500 0.176463
0.432750 0.176607
0.433000 0.176752
0.433250 0.176896
0.433500 0.177041
0.433750 0.177185
0.434000 0.177330
0.434250 0.177475
0.434500 0.177620
0.434750 0.177765
0.435000 0.177910
0.435250 0.178055
0.435500 0.178201
0.435750 0.178346
0.436000 0.178492
0.436250 0.178637
0.436500 0.178783
0.436750 0.178929
0.437000 0.179075
0.437250 0.179222
0.437500 0.179368
0.437750 0.179515
0.438000 0.179662
0.438250 0.179808
0.438500 0.179955
0.438750 0.180103
0.439000 0.180250
0.439250 0.180397
0.439500 0.180545
0.439750 0.180693
0.440000 0.180840
0.440250 0.180988
0.440500 0.181136
0.440750 0.181285
0.441000 0.181433
0.441250 0.181581
0.441500 0.181730
0.441750 0.181878
0.442000 0.182027
0.442250 0.182176
0.442500 0.182324
0.442750 0.182473
0.443000 0.182622
0.443250 0.182771
0.443500 0.182920
0.443750 0.183069
0.444000 0.183218
0.444250 0.183367
0.444500 0.183515
0.444750 0.183664
0.445000 0.183813
0.445250 0.183962
0.445500 0.184110
0.445750 0.184259
0.446000 0.184407
0.446250 0.184556
0.446500 0.184704
0.446750 0.184852
0.447000 0.185000
0.447250 0.185147
0.447500 0.185295
0.447750 0.185442
0.448000 0.185589
0.448250 0.185736
0.448500 0.185883
0.448750 0.186029
0.449000 0.186175
0.449250 0.186321
0.449500 0.186466
0.449750 0.186611
0.450000 0.186756
0.450250 0.186900
0.450500 0.187044
0.450750 0.187188
0.451000 0.187331
0.451250 0.187474
0.451500 0.187616
0.451750 0.187758
0.452000 0.187899
0.452250 0.188040
0.452500 0.188180
0.452750 0.188320
0.453000 0.188459
0.453250 0.188598
0.453500 0.188736
0.453750 0.188873
0.454000 0.189010
0.454250 0.189146
0.454500 0.189282
0.454750 0.189417
0.455000 0.189551
0.455250 0.189684
0.455500 0.189817
0.455750 0.189949
0.456000 0.190080
0.456250 0.190211
0.456500 0.190341
0.456750 0.190469
0.457000 0.190598
0.457250 0.190725
0.457500 0.190851
0.457750 0.190977
0.458000 0.191101
0.458250 0.191225
0.458500 0.191348
0.458750 0.191470
0.459000 0.191591
0.459250 0.191711
0.459500 0.191830
0.459750 0.191948
0.460000 0.192065
0.460250 0.192182
0.460500 0.192297
0.460750 0.192411
0.461000 0.192524
0.461250 0.192636
0.461500 0.192746
0.461750 0.192856
0.462000 0.192965
0.462250 0.193072
0.462500 0.193179
0.462750 0.193284
0.463000 0.193388
0.463250 0.193491
0.463500 0.193593
0.463750 0.193693
0.464000 0.193793
0.464250 0.193891
0.464500 0.193988
0.464750 0.194084
0.465000 0.194178
0.465250 0.194271
0.465500 0.194363
0.465750 0.194454
0.466000 0.194543
0.466250 0.194631
0.466500 0.194718
0.466750 0.194803
0.467000 0.194887
0.467250 0.194970
0.467500 0.195052
0.467750 0.195132
0.468000 0.195210
0.468250 0.195287
0.468500 0.195363
0.468750 0.195438
0.469000 0.195511
0.469250 0.195583
0.469500 0.195653
0.469750 0.195722
0.470000 0.195789
0.470250 0.195855
0.470500 0.195920
0.470750 0.195983
0.471000 0.196044
0.471250 0.196104
0.471500 0.196163
0.471750 0.196220
0.472000 0.196276
0.472250 0.196330
0.472500 0.196383
0.472750 0.196434
0.473000 0.196484
0.473250 0.196532
0.473500 0.196579
0.473750 0.196624
0.474000 0.196667
0.474250 0.196709
0.474500 0.196750
0.474750 0.196789
0.475000 0.196826
0.475250 0.196862
0.475500 0.196897
0.475750 0.196929
0.476000 0.196961
0.476250 0.196990
0.476500 0.197019
0.476750 0.197045
0.477000 0.197070
0.477250 0.197094
0.477500 0.197115
0.477750 0.197136
0.478000 0.197155
0.478250 0.197172
0.478500 0.197187
0.478750 0.197201
0.479000 0.197214
0.479250 0.197225
0.479500 0.197234
0.479750 0.197242
0.480000 0.197248
0.480250 0.197253
0.480500 0.197256
0.480750 0.197258
0.481000 0.197258
0.481250 0.197256
0.481500 0.197253
0.481750 0.197248
0.482000 0.197242
0.482250 0.197235
0.482500 0.197225
0.482750 0.197215
0.483000 0.197202
0.483250 0.197189
0.483500 0.197173
0.483750 0.197156
0.484000 0.197138
0.484250 0.197118
0.484500 0.197097
0.484750 0.197074
0.485000 0.197050
0.485250 0.197024
0.485500 0.196997
0.485750 0.196968
0.486000 0.196938
0.486250 0.196907
0.486500 0.196874
0.486750 0.196839
0.487000 0.196803
0.487250 0.196766
0.487500 0.196727
0.487750 0.196687
0.488000 0.196646
0.488250 0.196603
0.488500 0.196559
0.488750 0.196513
0.489000 0.196466
0.489250 0.196418
0.489500 0.196369
0.489750 0.196318
0.490000 0.196266
0.490250 0.196212
0.490500 0.196157
0.490750 0.196101
0.491000 0.196044
0.491250 0.195986
0.491500 0.195926
0.491750 0.195865
0.492000 0.195803
0.492250 0.195739
0.492500 0.195675
0.492750 0.195609
0.493000 0.195542
0.493250 0.195474
0.493500 0.195405
0.493750 0.195335
0.494000 0.195263
0.494250 0.195191
0.494500 0.195117
0.494750 0.195043
0.495000 0.194967
0.495250 0.194890
0.495500 0.194813
0.495750 0.194734
0.496000 0.194654
0.496250 0.194573
0.496500 0.194492
0.496750 0.194409
0.497000 0.194326
0.497250 0.194241
0.497500 0.194156
0.497750 0.194069
0.498000 0.193982
0.498250 0.193894
0.498500 0.193805
0.498750 0.193716
0.499000 0.193625
0.499250 0.193534
0.499500 0.193442
0.499750 0.193349
0.500000 0.193256
0.509900 0.189287
0.519800 0.184469
0.529700 0.179641
0.539600 0.175321
0.549500 0.171604
0.559400 0.168376
0.569300 0.165611
0.579200 0.163487
0.589100 0.162309
0.599000 0.162318
0.608900 0.163559
0.618800 0.165981
0.628700 0.169601
0.638600 0.174454
0.648500 0.180404
0.658400 0.187068
0.668300 0.193873
0.678200 0.200242
0.688100 0.205897
0.698000 0.211011
0.707900 0.216038
0.717800 0.221462
0.727700 0.227450
0.737600 0.233418
0.747500 0.238115
0.757400 0.240507
0.767300 0.240583
0.777200 0.239252
0.787100 0.237770
0.797000 0.237217
0.806900 0.238150
0.816800 0.240648
0.826700 0.244566
0.836600 0.249608
0.846500 0.255214
0.856400 0.260570
0.866300 0.264924
0.876200 0.267938
0.886100 0.269634
0.896000 0.270045
0.905900 0.269131
0.915800 0.266986
0.925700 0.263844
0.935600 0.259786
0.945500 0.254638
0.955400 0.248323
0.965300 0.241166
0.975200 0.233839
0.985100 0.227163
0.995000 0.221803
1.004900 0.217998
1.014800 0.215628
1.024700 0.214494
1.034600 0.214463
1.044500 0.215238
1.054400 0.216120
1.064300 0.216278
1.074200 0.215329
1.084100 0.213518
1.094000 0.211397
1.103900 0.209493
1.113800 0.208184
1.123700 0.207757
1.133600 0.208478
1.143500 0.210441
1.153400 0.213208
1.163300 0.215709
1.173200 0.216729
1.183100 0.215702
1.193000 0.213115
1.202900 0.210114
1.212800 0.207791
1.222700 0.206807
1.232600 0.207432
1.242500 0.209762
1.252400 0.213866
1.262300 0.219717
1.272200 0.227079
1.282100 0.235545
1.292000 0.244655
1.301900 0.254090
1.311800 0.263852
1.321700 0.274096
1.331600 0.284597
1.341500 0.294313
1.351400 0.301516
1.361300 0.304729
1.371200 0.303893
1.381100 0.300424
1.391000 0.296083
1.400900 0.291913
1.410800 0.288013
1.420700 0.283992
1.430600 0.279632
1.440500 0.275193
1.450400 0.271284
1.460300 0.268643
1.470200 0.267851
1.480100 0.269027
1.490000 0.271862
1.499900 0.275957
1.509800 0.280984
1.519700 0.286603
1.529600 0.292612
1.539500 0.299294
1.549400 0.307306
1.559300 0.316956
1.569200 0.327487
1.579100 0.336942
1.589000 0.343093
1.598900 0.345078
1.608800 0.344196
1.618700 0.342994
1.628600 0.343701
1.638500 0.347247
1.648400 0.353157
1.658300 0.359987
1.668200 0.366031
1.678100 0.370231
1.688000 0.372878
1.697900 0.375357
1.707800 0.379136
1.717700 0.385020
1.727600 0.393280
1.737500 0.404250
1.747400 0.418465
1.757300 0.436200
1.767200 0.457169
1.777100 0.480692
1.787000 0.506150
1.796900 0.533459
1.806800 0.563281
1.816700 0.596847
1.826600 0.635458
1.836500 0.679704
1.846400 0.728712
1.856300 0.780310
1.866200 0.832801
1.876100 0.887174
1.886000 0.946743
1.895900 1.014251
1.905800 1.089830
1.915700 1.171141
1.925600 1.255116
1.935500 1.340588
1.945400 1.428968
1.955300 1.520798
1.965200 1.611769
1.975100 1.693315
1.985000 1.757722
1.994900 1.801658
2.004800 1.824046
2.014700 1.823075
2.024600 1.798326
2.034500 1.754818
2.044400 1.702152
2.054300 1.649115
2.064200 1.599279
2.074100 1.551685
2.084000 1.505167
2.093900 1.460043
2.103800 1.415572
2.113700 1.368476
2.123600 1.314997
2.133500 1.254120
2.143400 1.189023
2.153300 1.125550
2.163200 1.069439
2.173100 1.024745
2.183000 0.993747
2.192900 0.977059
2.202800 0.973351
2.212700 0.979379
2.222600 0.991140
2.232500 1.005815
2.242400 1.022870
2.252300 1.043151
2.262200 1.066797
2.272100 1.091957
2.282000 1.115438
2.291900 1.134450
2.301800 1.147623
2.311700 1.155112
2.321600 1.158655
2.331500 1.161391
2.341400 1.167272
2.351300 1.180021
2.361200 1.201316
2.371100 1.229097
2.381000 1.257822
2.390900 1.280864
2.400800 1.292938
2.410700 1.291222
2.420600 1.275867
2.430500 1.250032
2.440400 1.219044
2.450300 1.189169
2.460200 1.166296
2.470100 1.154372
2.480000 1.154071
2.489900 1.162922
2.499800 1.177572
2.509700 1.196528
2.519600 1.220305
2.529500 1.249359
2.539400 1.282486
2.549300 1.315799
2.559200 1.341472
2.569100 1.348816
2.579000 1.330916
2.588900 1.291256
2.598800 1.241339
2.608700 1.192595
2.618600 1.151897
2.628500 1.121858
2.638400 1.101858
2.648300 1.088683
2.658200 1.077930
2.668100 1.065892
2.678000 1.050791
2.687900 1.033166
2.697800 1.015552
2.707700 1.001601
2.717600 0.995068
2.727500 0.999108
2.737400 1.015468
2.747300 1.042957
2.757200 1.076207
2.767100 1.106881
2.777000 1.127843
2.786900 1.137223
2.796800 1.138553
2.806700 1.137557
2.816600 1.138853
2.826500 1.144160
2.836400 1.152244
2.846300 1.160632
2.856200 1.167713
2.866100 1.172966
2.876000 1.175960
2.885900 1.176302
2.895800 1.174065
2.905700 1.169188
2.915600 1.160912
2.925500 1.148722
2.935400 1.133263
2.945300 1.115495
2.955200 1.095482
2.965100 1.072534
2.975000 1.046550
2.984900 1.019593
2.994800 0.996101
3.004700 0.980821
3.014600 0.976388
3.024500 0.982510
3.034400 0.996272
3.044300 1.012668
3.054200 1.025127
3.064100 1.026645
3.074000 1.012827
3.083900 0.984723
3.093800 0.947436
3.103700 0.906194
3.113600 0.864394
3.123500 0.824032
3.133400 0.786601
3.143300 0.753354
3.153200 0.724849
3.163100 0.700703
3.173000 0.680027
3.182900 0.662076
3.192800 0.646629
3.202700 0.634049
3.212600 0.625045
3.222500 0.620301
3.232400 0.620440
3.242300 0.626165
3.252200 0.638002
3.262100 0.655862
3.272000 0.679175
3.281900 0.707671
3.291800 0.741706
3.301700 0.781174
3.311600 0.823760
3.321500 0.864269
3.331400 0.896232
3.341300 0.915496
3.351200 0.923138
3.361100 0.924515
3.371000 0.925193
3.380900 0.927840
3.390800 0.932318
3.400700 0.937520
3.410600 0.942505
3.420500 0.946371
3.430400 0.947926
3.440300 0.946167
3.450200 0.940947
3.460100 0.933034
3.470000 0.924024
3.479900 0.915828
3.489800 0.909479
3.499700 0.904656
3.509600 0.900433
3.519500 0.896044
3.529400 0.891247
3.539300 0.886166
3.549200 0.880481
3.559100 0.873046
3.569000 0.862611
3.578900 0.848386
3.588800 0.829537
3.598700 0.805067
3.608600 0.774976
3.618500 0.741235
3.628400 0.707216
3.638300 0.676253
3.648200 0.650658
3.658100 0.631653
3.668000 0.619747
3.677900 0.615033
3.687800 0.617310
3.697700 0.626117
3.707600 0.640880
3.717500 0.661034
3.727400 0.686020
3.737300 0.715263
3.747200 0.747985
3.757100 0.782486
3.767000 0.815401
3.776900 0.842051
3.786800 0.858440
3.796700 0.863307
3.806600 0.858145
3.816500 0.846028
3.826400 0.830852
3.836300 0.816718
3.846200 0.807129
3.856100 0.804404
3.866000 0.809620
3.875900 0.822693
3.885800 0.842200
3.895700 0.865267
3.905600 0.888201
3.915500 0.908306
3.925400 0.925000
3.935300 0.938258
3.945200 0.946365
3.955100 0.945837
3.965000 0.933878
3.974900 0.911596
3.984800 0.884572
3.994700 0.859674
4.004600 0.841501
4.014500 0.831300
4.024400 0.827423
4.034300 0.825790
4.044200 0.820741
4.054100 0.807250
4.064000 0.784019
4.073900 0.754569
4.083800 0.724580
4.093700 0.698364
4.103600 0.677610
4.113500 0.662034
4.123400 0.650422
4.133300 0.641688
4.143200 0.635588
4.153100 0.632300
4.163000 0.631643
4.172900 0.633249
4.182800 0.637298
4.192700 0.644657
4.202600 0.656226
4.212500 0.672184
4.222400 0.691811
4.232300 0.714174
4.242200 0.739192
4.252100 0.768036
4.262000 0.802295
4.271900 0.842308
4.281800 0.886132
4.291700 0.930256
4.301600 0.971456
4.311500 1.008512
4.321400 1.042799
4.331300 1.076987
4.341200 1.112675
4.351100 1.148521
4.361000 1.179666
4.370900 1.199445
4.380800 1.203195
4.390700 1.191270
4.400600 1.168576
4.410500 1.140769
4.420400 1.110877
4.430300 1.079775
4.440200 1.048351
4.450100 1.017912
4.460000 0.989832
4.469900 0.965400
4.479800 0.945084
4.489700 0.928256
4.499600 0.914160
4.509500 0.902512
4.519400 0.892698
4.529300 0.883180
4.539200 0.872758
4.549100 0.861857
4.559000 0.851514
4.568900 0.841498
4.578800 0.830473
4.588700 0.817706
4.598600 0.803274
4.608500 0.787199
4.618400 0.769937
4.628300 0.753118
4.638200 0.738576
4.648100 0.726918
4.658000 0.717470
4.667900 0.709198
4.677800 0.701352
4.687700 0.693751
4.697600 0.687168
4.707500 0.683344
4.717400 0.683773
4.727300 0.688104
4.737200 0.694111
4.747100 0.699377
4.757000 0.702745
4.766900 0.704507
4.776800 0.706133
4.786700 0.709921
4.796600 0.718317
4.806500 0.733128
4.816400 0.754985
4.826300 0.783098
4.836200 0.815468
4.846100 0.849271
4.856000 0.880781
4.865900 0.905747
4.875800 0.921000
4.885700 0.925512
4.895600 0.920167
4.905500 0.907666
4.915400 0.892323
4.925300 0.878529
4.935200 0.868887
4.945100 0.863537
4.955000 0.860755
4.964900 0.858638
4.974800 0.857042
4.984700 0.857660
4.994600 0.861734
5.004500 0.867805
5.014400 0.871432
5.024300 0.867267
5.034200 0.852823
5.044100 0.830840
5.054000 0.807310
5.063900 0.787308
5.073800 0.772767
5.083700 0.762964
5.093600 0.756318
5.103500 0.751883
5.113400 0.749307
5.123300 0.747644
5.133200 0.744973
5.143100 0.739424
5.153000 0.730025
5.162900 0.716591
5.172800 0.699769
5.182700 0.681067
5.192600 0.661965
5.202500 0.643117
5.212400 0.624670
5.222300 0.607195
5.232200 0.591956
5.242100 0.580236
5.252000 0.572539
5.261900 0.568425
5.271800 0.566885
5.281700 0.566927
5.291600 0.568023
5.301500 0.570118
5.311400 0.573211
5.321300 0.576944
5.331200 0.580744
5.341100 0.584684
5.351000 0.590175
5.360900 0.599283
5.370800 0.613156
5.380700 0.631014
5.390600 0.650204
5.400500 0.667083
5.410400 0.678576
5.420300 0.683332
5.430200 0.681429
5.440100 0.673561
5.450000 0.660718
5.459900 0.644248
5.469800 0.625946
5.479700 0.607726
5.489600 0.590920
5.499500 0.575876
5.509400 0.562044
5.519300 0.548408
5.529200 0.534207
5.539100 0.519753
5.549000 0.506632
5.558900 0.496791
5.568800 0.491228
5.578700 0.489305
5.588600 0.489016
5.598500 0.488069
5.608400 0.485305
5.618300 0.481326
5.628200 0.477548
5.638100 0.474724
5.648000 0.472522
5.657900 0.470390
5.667800 0.468705
5.677700 0.468971
5.687600 0.472823
5.697500 0.480793
5.707400 0.491838
5.717300 0.503910
5.727200 0.515163
5.737100 0.524698
5.747000 0.532460
5.756900 0.538996
5.766800 0.545258
5.776700 0.551999
5.786600 0.558957
5.796500 0.564743
5.806400 0.567783
5.816300 0.567449
5.826200 0.564184
5.836100 0.559013
5.846000 0.553359
5.855900 0.548801
5.865800 0.546556
5.875700 0.546949
5.885600 0.549193
5.895500 0.551996
5.905400 0.554825
5.915300 0.558494
5.925200 0.564332
5.935100 0.572907
5.945000 0.583499
5.954900 0.594555
5.964800 0.604613
5.974700 0.613019
5.984600 0.620057
5.994500 0.626660
6.004400 0.634086
6.014300 0.643960
6.024200 0.658522
6.034100 0.680041
6.044000 0.709093
6.053900 0.743049
6.063800 0.776376
6.073700 0.803311
6.083600 0.821141
6.093500 0.830475
6.103400 0.832363
6.113300 0.826415
6.123200 0.812016
6.133100 0.790633
6.143000 0.766436
6.152900 0.744869
6.162800 0.730782
6.172700 0.727145
6.182600 0.734338
6.192500 0.750207
6.202400 0.771219
6.212300 0.794244
6.222200 0.817586
6.232100 0.840450
6.242000 0.861326
6.251900 0.876589
6.261800 0.880999
6.271700 0.870993
6.281600 0.848095
6.291500 0.818202
6.301400 0.787535
6.311300 0.759198
6.321200 0.732122
6.331100 0.702928
6.341000 0.669793
6.350900 0.634449
6.360800 0.600107
6.370700 0.568771
6.380600 0.540945
6.390500 0.516592
6.400400 0.495523
6.410300 0.477332
6.420200 0.461661
6.430100 0.448447
6.440000 0.437665
6.449900 0.429147
6.459800 0.422728
6.469700 0.418137
6.479600 0.414529
6.489500 0.410296
6.499400 0.403828
6.509300 0.394955
6.519200 0.385432
6.529100 0.377708
6.539000 0.373399
6.548900 0.372729
6.558800 0.374811
6.568700 0.378314
6.578600 0.382225
6.588500 0.386364
6.598400 0.391228
6.608300 0.397341
6.618200 0.404889
6.628100 0.413963
6.638000 0.424699
6.647900 0.436615
6.657800 0.447700
6.667700 0.454692
6.677600 0.455170
6.687500 0.449622
6.697400 0.440948
6.707300 0.432204
6.717200 0.425175
6.727100 0.420404
6.737000 0.417679
6.746900 0.416296
6.756800 0.415291
6.766700 0.413910
6.776600 0.411932
6.786500 0.409658
6.796400 0.407748
6.806300 0.406662
6.816200 0.405823
6.826100 0.403648
6.836000 0.398877
6.845900 0.391827
6.855800 0.384058
6.865700 0.377086
6.875600 0.371821
6.885500 0.368757
6.895400 0.368162
6.905300 0.370001
6.915200 0.373710
6.925100 0.378168
6.935000 0.382296
6.944900 0.385741
6.954800 0.388614
6.964700 0.390836
6.974600 0.392440
6.984500 0.394381
6.994400 0.398315
7.004300 0.405322
7.014200 0.415017
7.024100 0.425751
7.034000 0.435262
7.043900 0.441295
7.053800 0.442229
7.063700 0.437652
7.073600 0.428557
7.083500 0.417040
7.093400 0.405494
7.103300 0.395841
7.113200 0.389356
7.123100 0.386724
7.133000 0.388043
7.142900 0.392883
7.152800 0.400307
7.162700 0.408618
7.172600 0.414998
7.182500 0.415933
7.192400 0.409081
7.202300 0.395078
7.212200 0.377204
7.222100 0.359478
7.232000 0.345038
7.241900 0.335543
7.251800 0.331262
7.261700 0.331419
7.271600 0.334483
7.281500 0.338395
7.291400 0.341255
7.301300 0.342408
7.311200 0.342754
7.321100 0.343973
7.331000 0.347745
7.340900 0.355292
7.350800 0.366938
7.360700 0.381919
7.370600 0.398734
7.380500 0.415602
7.390400 0.430515
7.400300 0.441387
7.410200 0.446943
7.420100 0.447474
7.430000 0.444476
7.439900 0.439850
7.449800 0.435442
7.459700 0.432647
7.469600 0.431779
7.479500 0.431644
7.489400 0.430176
7.499300 0.425913
7.509200 0.419062
7.519100 0.411207
7.529000 0.404199
7.538900 0.399499
7.548800 0.398066
7.558700 0.400266
7.568600 0.405840
7.578500 0.414102
7.588400 0.424158
7.598300 0.435031
7.608200 0.445822
7.618100 0.456060
7.628000 0.466214
7.637900 0.477728
7.647800 0.492177
7.657700 0.510349
7.667600 0.532157
7.677500 0.557101
7.687400 0.584523
7.697300 0.613469
7.707200 0.642070
7.717100 0.666911
7.727000 0.684160
7.736900 0.692514
7.746800 0.694400
7.756700 0.693676
7.766600 0.692925
7.776500 0.692901
7.786400 0.693173
7.796300 0.692383
7.806200 0.688484
7.816100 0.680082
7.826000 0.667843
7.835900 0.654018
7.845800 0.640656
7.855700 0.628404
7.865600 0.616593
7.875500 0.604344
7.885400 0.591915
7.895300 0.580914
7.905200 0.573199
7.915100 0.569730
7.925000 0.569956
7.934900 0.571747
7.944800 0.572346
7.954700 0.569833
7.964600 0.563376
7.974500 0.552467
7.984400 0.536955
7.994300 0.517860
8.004200 0.497642
8.014100 0.479352
8.024000 0.465315
8.033900 0.456473
8.043800 0.452662
8.053700 0.453151
8.063600 0.456755
8.073500 0.461719
8.083400 0.465953
8.093300 0.467703
8.103200 0.466054
8.113100 0.460787
8.123000 0.452178
8.132900 0.441329
8.142800 0.430395
8.152700 0.421998
8.162600 0.418260
8.172500 0.420339
8.182400 0.428745
8.192300 0.443906
8.202200 0.466404
8.212100 0.496633
8.222000 0.534251
8.231900 0.577910
8.241800 0.625284
8.251700 0.672983
8.261600 0.716101
8.271500 0.748342
8.281400 0.764180
8.291300 0.762038
8.301200 0.745395
8.311100 0.720862
8.321000 0.695090
8.330900 0.672536
8.340800 0.655036
8.350700 0.642719
8.360600 0.634634
8.370500 0.628258
8.380400 0.619588
8.390300 0.605278
8.400200 0.584863
8.410100 0.560512
8.420000 0.535303
8.429900 0.511804
8.439800 0.491279
8.449700 0.473839
8.459600 0.459249
8.469500 0.447291
8.479400 0.437757
8.489300 0.430665
8.499200 0.426160
8.509100 0.423814
8.519000 0.422195
8.528900 0.419595
8.538800 0.415377
8.548700 0.410551
8.558600 0.407078
8.568500 0.406577
8.578400 0.409432
8.588300 0.414838
8.598200 0.421517
8.608100 0.428330
8.618000 0.434397
8.627900 0.438983
8.637800 0.441177
8.647700 0.439610
8.657600 0.432980
8.667500 0.421032
8.677400 0.404895
8.687300 0.386568
8.697200 0.368226
8.707100 0.351601
8.717000 0.337668
8.726900 0.326783
8.736800 0.318943
8.746700 0.313920
8.756600 0.311346
8.766500 0.310774
8.776400 0.311548
8.786300 0.312781
8.796200 0.313748
8.806100 0.314073
8.816000 0.313390
8.825900 0.311263
8.835800 0.307650
8.845700 0.303302
8.855600 0.299636
8.865500 0.298091
8.875400 0.299450
8.885300 0.303670
8.895200 0.310415
8.905100 0.319759
8.915000 0.332188
8.924900 0.347855
8.934800 0.365803
8.944700 0.383734
8.954600 0.398909
8.964500 0.410034
8.974400 0.418230
8.984300 0.425796
8.994200 0.434223
9.004100 0.443290
9.014000 0.451289
9.023900 0.455546
9.033800 0.453397
9.043700 0.444121
9.053600 0.429860
9.063500 0.413787
9.073400 0.397777
9.083300 0.381795
9.093200 0.364771
9.103100 0.346120
9.113000 0.326655
9.122900 0.307907
9.132800 0.290909
9.142700 0.275940
9.152600 0.263052
9.162500 0.252363
9.172400 0.243840
9.182300 0.237130
9.192200 0.231739
9.202100 0.227283
9.212000 0.223483
9.221900 0.220079
9.231800 0.216946
9.241700 0.214237
9.251600 0.212147
9.261500 0.210479
9.271400 0.208638
9.281300 0.206177
9.291200 0.203200
9.301100 0.200115
9.311000 0.197257
9.320900 0.194765
9.330800 0.192469
9.340700 0.189779
9.350600 0.185966
9.360500 0.180805
9.370400 0.174802
9.380300 0.168706
9.390200 0.163022
9.400100 0.157974
9.410000 0.153734
9.419900 0.150560
9.429800 0.148728
9.439700 0.148372
9.449600 0.149387
9.459500 0.151526
9.469400 0.154564
9.479300 0.158378
9.489200 0.162957
9.499100 0.168392
9.509000 0.174785
9.518900 0.182168
9.528800 0.190646
9.538700 0.200655
9.548600 0.212757
9.558500 0.226817
9.568400 0.241142
9.578300 0.252603
9.588200 0.258383
9.598100 0.257882
9.608000 0.252466
9.617900 0.243911
9.627800 0.233691
9.637700 0.223082
9.647600 0.213183
9.657500 0.204676
9.667400 0.197743
9.677300 0.192321
9.687200 0.188390
9.697100 0.185961
9.707000 0.184925
9.716900 0.185042
9.726800 0.186151
9.736700 0.188345
9.746600 0.191957
9.756500 0.197374
9.766400 0.204861
9.776300 0.214486
9.786200 0.226101
9.796100 0.239234
9.806000 0.252957
9.815900 0.265917
9.825800 0.276560
9.835700 0.283684
9.845600 0.287005
9.855500 0.287011
9.865400 0.284417
9.875300 0.279989
9.885200 0.274591
9.895100 0.268896
9.905000 0.262932
9.914900 0.256019
9.924800 0.247481
9.934700 0.237557
9.944600 0.227394
9.954500 0.218138
9.964400 0.210250
9.974300 0.203630
9.984200 0.198144
9.994100 0.193845
10.004000 0.190837
10.013900 0.189181
10.023800 0.188974
10.033700 0.190276
10.043600 0.192838
10.053500 0.196015
10.063400 0.198984
10.073300 0.200927
10.083200 0.201168
10.093100 0.199529
10.103000 0.196580
10.112900 0.193321
10.122800 0.190621
10.132700 0.188880
10.142600 0.187932
10.152500 0.187123
10.162400 0.185620
10.172300 0.182843
10.182200 0.178837
10.192100 0.174314
10.202000 0.170298
10.211900 0.167704
10.221800 0.167161
10.231700 0.169010
10.241600 0.173361
10.251500 0.180162
10.261400 0.189145
10.271300 0.199561
10.281200 0.209985
10.291100 0.218631
10.301000 0.224295
10.310900 0.227124
10.320800 0.228162
10.330700 0.228188
10.340600 0.227281
10.350500 0.225161
10.360400 0.221451
10.370300 0.215867
10.380200 0.208586
10.390100 0.200366
10.400000 0.192162
10.409900 0.184666
10.419800 0.178248
10.429700 0.173157
10.439600 0.169617
10.449500 0.167758
10.459400 0.167570
10.469300 0.168978
10.479200 0.171922
10.489100 0.176388
10.499000 0.182420
10.508900 0.190075
10.518800 0.199262
10.528700 0.209519
10.538600 0.219884
10.548500 0.229101
10.558400 0.236206
10.568300 0.240906
10.578200 0.243419
10.588100 0.244241
10.598000 0.244164
10.607900 0.244204
10.617800 0.245249
10.627700 0.247695
10.637600 0.251348
10.647500 0.255432
10.657400 0.258545
10.667300 0.258881
10.677200 0.255053
10.687100 0.247048
10.697000 0.236279
10.706900 0.224748
10.716800 0.214146
10.726700 0.205485
10.736600 0.199162
10.746500 0.195046
10.756400 0.192432
10.766300 0.190199
10.776200 0.187396
10.786100 0.183874
10.796000 0.180366
10.805900 0.177952
10.815800 0.177418
10.825700 0.178869
10.835600 0.181686
10.845500 0.184730
10.855400 0.186834
10.865300 0.187292
10.875200 0.185980
10.885100 0.183376
10.895000 0.180546
10.904900 0.178750
10.914800 0.178863
10.924700 0.181110
10.934600 0.185211
10.944500 0.190746
10.954400 0.197435
10.964300 0.205097
10.974200 0.213415
10.984100 0.221742
10.994000 0.229008
11.003900 0.233982
11.013800 0.235969
11.023700 0.235434
11.033600 0.233898
11.043500 0.233106
11.053400 0.234345
11.063300 0.238254
11.073200 0.244715
11.083100 0.252542
11.093000 0.259193
11.102900 0.261204
11.112800 0.255894
11.122700 0.243351
11.132600 0.226465
11.142500 0.208922
11.152400 0.193378
11.162300 0.180996
11.172200 0.171801
11.182100 0.165189
11.192000 0.160337
11.201900 0.156555
11.211800 0.153454
11.221700 0.150876
11.231600 0.148680
11.241500 0.146714
11.251400 0.145010
11.261300 0.143907
11.271200 0.143872
11.281100 0.145187
11.291000 0.147834
11.300900 0.151593
11.310800 0.156088
11.320700 0.160660
11.330600 0.164264
11.340500 0.165777
11.350400 0.164598
11.360300 0.160992
11.370200 0.155841
11.380100 0.150113
11.390000 0.144544
11.399900 0.139701
11.409800 0.136037
11.419700 0.133753
11.429600 0.132783
11.439500 0.133026
11.449400 0.134541
11.459300 0.137430
11.469200 0.141623
11.479100 0.146768
11.489000 0.152159
11.498900 0.156739
11.508800 0.159461
11.518700 0.160007
11.528600 0.159073
11.538500 0.157810
11.548400 0.157137
11.558300 0.157600
11.568200 0.159611
11.578100 0.163481
11.588000 0.169081
11.597900 0.175531
11.607800 0.181319
11.617700 0.184998
11.627600 0.186030
11.637500 0.185016
11.647400 0.183126
11.657300 0.181382
11.667200 0.180318
11.677100 0.180099
11.687000 0.180905
11.696900 0.183152
11.706800 0.187321
11.716700 0.193625
11.726600 0.201836
11.736500 0.211508
11.746400 0.222247
11.756300 0.233387
11.766200 0.243323
11.776100 0.249690
11.786000 0.250769
11.795900 0.246877
11.805800 0.240165
11.815700 0.233212
11.825600 0.227891
11.835500 0.224998
11.845400 0.224475
11.855300 0.225825
11.865200 0.228359
11.875100 0.231314
11.885000 0.233947
11.894900 0.235548
11.904800 0.235539
11.914700 0.233622
11.924600 0.229830
11.934500 0.224439
11.944400 0.217783
11.954300 0.210114
11.964200 0.201684
11.974100 0.192847
11.984000 0.184018
11.993900 0.175641
12.003800 0.168103
12.013700 0.161552
12.023600 0.155842
12.033500 0.150747
12.043400 0.146199
12.053300 0.142297
12.063200 0.139125
12.073100 0.136595
12.083000 0.134464
12.092900 0.132561
12.102800 0.130995
12.112700 0.129994
12.122600 0.129580
12.132500 0.129510
12.142400 0.129517
12.152300 0.129508
12.162200 0.129604
12.172100 0.130115
12.182000 0.131462
12.191900 0.134023
12.201800 0.138016
12.211700 0.143500
12.221600 0.150460
12.231500 0.158834
12.241400 0.168411
12.251300 0.178693
12.261200 0.188968
12.271100 0.198617
12.281000 0.207307
12.290900 0.214793
12.300800 0.220717
12.310700 0.224600
12.320600 0.225841
12.330500 0.223788
12.340400 0.217925
12.350300 0.208191
12.360200 0.195500
12.370100 0.181777
12.380000 0.169082
12.389900 0.158760
12.399800 0.151288
12.409700 0.146556
12.419600 0.144224
12.429500 0.143986
12.439400 0.145643
12.449300 0.149038
12.459200 0.153980
12.469100 0.160236
12.479000 0.167501
12.488900 0.175246
12.498800 0.182505
12.508700 0.187979
12.518600 0.190822
12.528500 0.191394
12.538400 0.190963
12.548300 0.190846
12.558200 0.191893
12.568100 0.194233
12.578000 0.197269
12.587900 0.200173
12.597800 0.202592
12.607700 0.204857
12.617600 0.207521
12.627500 0.210748
12.637400 0.214075
12.647300 0.216389
12.657200 0.216162
12.667100 0.212316
12.677000 0.205045
12.686900 0.195591
12.696800 0.185278
12.706700 0.174822
12.716600 0.164428
12.726500 0.154228
12.736400 0.144502
12.746300 0.135659
12.756200 0.128120
12.766100 0.122209
12.776000 0.118088
12.785900 0.115720
12.795800 0.114889
12.805700 0.115228
12.815600 0.116245
12.825500 0.117381
12.835400 0.118126
12.845300 0.118108
12.855200 0.117135
12.865100 0.115156
12.875000 0.112165
12.884900 0.108214
12.894800 0.103609
12.904700 0.098965
12.914600 0.094926
12.924500 0.091820
12.934400 0.089590
12.944300 0.087997
12.954200 0.086825
12.964100 0.085912
12.974000 0.085114
12.983900 0.084327
12.993800 0.083557
13.003700 0.082907
13.013600 0.082412
13.023500 0.081922
13.033400 0.081158
13.043300 0.079909
13.053200 0.078185
13.063100 0.076226
13.073000 0.074402
13.082900 0.073045
13.092800 0.072293
13.102700 0.072064
13.112600 0.072181
13.122500 0.072537
13.132400 0.073158
13.142300 0.074110
13.152200 0.075346
13.162100 0.076705
13.172000 0.078081
13.181900 0.079499
13.191800 0.080965
13.201700 0.082300
13.211600 0.083209
13.221500 0.083525
13.231400 0.083331
13.241300 0.082872
13.251200 0.082504
13.261100 0.082649
13.271000 0.083587
13.280900 0.085185
13.290800 0.086857
13.300700 0.087884
13.310600 0.087851
13.320500 0.086703
13.330400 0.084505
13.340300 0.081377
13.350200 0.077630
13.360100 0.073762
13.370000 0.070240
13.379900 0.067287
13.389800 0.064869
13.399700 0.062818
13.409600 0.060986
13.419500 0.059348
13.429400 0.057978
13.439300 0.056955
13.449200 0.056299
13.459100 0.055953
13.469000 0.055814
13.478900 0.055772
13.488800 0.055741
13.498700 0.055687
13.508600 0.055637
13.518500 0.055623
13.528400 0.055653
13.538300 0.055756
13.548200 0.056042
13.558100 0.056661
13.568000 0.057711
13.577900 0.059166
13.587800 0.060900
13.597700 0.062840
13.607600 0.065074
13.617500 0.067828
13.627400 0.071379
13.637300 0.075952
13.647200 0.081583
13.657100 0.088035
13.667000 0.094875
13.676900 0.101741
13.686800 0.108629
13.696700 0.115846
13.706600 0.123608
13.716500 0.131569
13.726400 0.138452
13.736300 0.142203
13.746200 0.141137
13.756100 0.135193
13.766000 0.125781
13.775900 0.114731
13.785800 0.103645
13.795700 0.093639
13.805600 0.085302
13.815500 0.078833
13.825400 0.074201
13.835300 0.071234
13.845200 0.069659
13.855100 0.069157
13.865000 0.069411
13.874900 0.070091
13.884800 0.070772
13.894700 0.070960
13.904600 0.070297
13.914500 0.068794
13.924400 0.066843
13.934300 0.064974
13.944200 0.063623
13.954100 0.063011
13.964000 0.063133
13.973900 0.063827
13.983800 0.064832
13.993700 0.065771
14.003600 0.066181
14.013500 0.065680
14.023400 0.064209
14.033300 0.062069
14.043200 0.059721
14.053100 0.057572
14.063000 0.055893
14.072900 0.054805
14.082800 0.054253
14.092700 0.054029
14.102600 0.053897
14.112500 0.053752
14.122400 0.053664
14.132300 0.053792
14.142200 0.054224
14.152100 0.054873
14.162000 0.055480
14.171900 0.055768
14.181800 0.055648
14.191700 0.055267
14.201600 0.054816
14.211500 0.054304
14.221400 0.053555
14.231300 0.052457
14.241200 0.051141
14.251100 0.049882
14.261000 0.048926
14.270900 0.048408
14.280800 0.048305
14.290700 0.048390
14.300600 0.048270
14.310500 0.047585
14.320400 0.046238
14.330300 0.044429
14.340200 0.042477
14.350100 0.040659
14.360000 0.039158
14.369900 0.038080
14.379800 0.037449
14.389700 0.037185
14.399600 0.037110
14.409500 0.037041
14.419400 0.036890
14.429300 0.036672
14.439200 0.036432
14.449100 0.036181
14.459000 0.035875
14.468900 0.035450
14.478800 0.034855
14.488700 0.034079
14.498600 0.033164
14.508500 0.032205
14.518400 0.031310
14.528300 0.030562
14.538200 0.030002
14.548100 0.029635
14.558000 0.029450
14.567900 0.029426
14.577800 0.029530
14.587700 0.029722
14.597600 0.029981
14.607500 0.030343
14.617400 0.030912
14.627300 0.031812
14.637200 0.033103
14.647100 0.034722
14.657000 0.036437
14.666900 0.037853
14.676800 0.038531
14.686700 0.038273
14.696600 0.037304
14.706500 0.036080
14.716400 0.034987
14.726300 0.034203
14.736200 0.033748
14.746100 0.033565
14.756000 0.033595
14.765900 0.033794
14.775800 0.034106
14.785700 0.034461
14.795600 0.034787
14.805500 0.035000
14.815400 0.034997
14.825300 0.034700
14.835200 0.034112
14.845100 0.033311
14.855000 0.032444
14.864900 0.031701
14.874800 0.031250
14.884700 0.031152
14.894600 0.031316
14.904500 0.031481
14.914400 0.031286
14.924300 0.030491
14.934200 0.029162
14.944100 0.027608
14.954000 0.026142
14.963900 0.024921
14.973800 0.023958
14.983700 0.023198
14.993600 0.022594
15.003500 0.022136
15.013400 0.021837
15.023300 0.021712
15.033200 0.021779
15.043100 0.022064
15.053000 0.022588
15.062900 0.023353
15.072800 0.024316
15.082700 0.025364
15.092600 0.026332
15.102500 0.027081
15.112400 0.027575
15.122300 0.027892
15.132200 0.028152
15.142100 0.028447
15.152000 0.028802
15.161900 0.029197
15.171800 0.029600
15.181700 0.029985
15.191600 0.030332
15.201500 0.030600
15.211400 0.030710
15.221300 0.030577
15.231200 0.030132
15.241100 0.029334
15.251000 0.028187
15.260900 0.026785
15.270800 0.025312
15.280700 0.023965
15.290600 0.022867
15.300500 0.022030
15.310400 0.021396
15.320300 0.020874
15.330200 0.020389
15.340100 0.019909
15.350000 0.019455
15.359900 0.019059
15.369800 0.018732
15.379700 0.018470
15.389600 0.018282
15.399500 0.018169
15.409400 0.018103
15.419300 0.018023
15.429200 0.017858
15.439100 0.017571
15.449000 0.017173
15.458900 0.016696
15.468800 0.016150
15.478700 0.015526
15.488600 0.014835
15.498500 0.014126
15.508400 0.013470
15.518300 0.012923
15.528200 0.012506
15.538100 0.012208
15.548000 0.011996
15.557900 0.011826
15.567800 0.011657
15.577700 0.011461
15.587600 0.011241
15.597500 0.011024
15.607400 0.010844
15.617300 0.010716
15.627200 0.010628
15.637100 0.010550
15.647000 0.010453
15.656900 0.010330
15.666800 0.010201
15.676700 0.010095
15.686600 0.010032
15.696500 0.010021
15.706400 0.010069
15.716300 0.010181
15.726200 0.010355
15.736100 0.010569
15.746000 0.010778
15.755900 0.010937
15.765800 0.011033
15.775700 0.011091
15.785600 0.011162
15.795500 0.011289
15.805400 0.011492
15.815300 0.011780
15.825200 0.012149
15.835100 0.012600
15.845000 0.013134
15.854900 0.013751
15.864800 0.014436
15.874700 0.015155
15.884600 0.015860
15.894500 0.016545
15.904400 0.017266
15.914300 0.018107
15.924200 0.019107
15.934100 0.020242
15.944000 0.021459
15.953900 0.022682
15.963800 0.023754
15.973700 0.024392
15.983600 0.024324
15.993500 0.023482
16.003400 0.022047
16.013300 0.020331
16.023200 0.018625
16.033100 0.017120
16.043000 0.015903
16.052900 0.015001
16.062800 0.014406
16.072700 0.014091
16.082600 0.014008
16.092500 0.014087
16.102400 0.014240
16.112300 0.014378
16.122200 0.014431
16.132100 0.014370
16.142000 0.014206
16.151900 0.013994
16.161800 0.013817
16.171700 0.013759
16.181600 0.013879
16.191500 0.014211
16.201400 0.014773
16.211300 0.015560
16.221200 0.016518
16.231100 0.017506
16.241000 0.018278
16.250900 0.018561
16.260800 0.018238
16.270700 0.017449
16.280600 0.016454
16.290500 0.015458
16.300400 0.014552
16.310300 0.013761
16.320200 0.013090
16.330100 0.012535
16.340000 0.012082
16.349900 0.011718
16.359800 0.011441
16.369700 0.011264
16.379600 0.011204
16.389500 0.011259
16.399400 0.011390
16.409300 0.011527
16.419200 0.011606
16.429100 0.011608
16.439000 0.011568
16.448900 0.011534
16.458800 0.011539
16.468700 0.011603
16.478600 0.011751
16.488500 0.012008
16.498400 0.012360
16.508300 0.012758
16.518200 0.013135
16.528100 0.013420
16.538000 0.013542
16.547900 0.013458
16.557800 0.013181
16.567700 0.012759
16.577600 0.012229
16.587500 0.011606
16.597400 0.010895
16.607300 0.010130
16.617200 0.009380
16.627100 0.008705
16.637000 0.008143
16.646900 0.007702
16.656800 0.007379
16.666700 0.007161
16.676600 0.007039
16.686500 0.006999
16.696400 0.007030
16.706300 0.007114
16.716200 0.007233
16.726100 0.007379
16.736000 0.007561
16.745900 0.007798
16.755800 0.008108
16.765700 0.008500
16.775600 0.008976
16.785500 0.009530
16.795400 0.010133
16.805300 0.010705
16.815200 0.011119
16.825100 0.011264
16.835000 0.011105
16.844900 0.010714
16.854800 0.010218
16.864700 0.009724
16.874600 0.009284
16.884500 0.008910
16.894400 0.008587
16.904300 0.008290
16.914200 0.007998
16.924100 0.007706
16.934000 0.007427
16.943900 0.007175
16.953800 0.006961
16.963700 0.006786
16.973600 0.006651
16.983500 0.006551
16.993400 0.006482
17.003300 0.006436
17.013200 0.006399
17.023100 0.006354
17.033000 0.006284
17.042900 0.006189
17.052800 0.006079
17.062700 0.005967
17.072600 0.005863
17.082500 0.005777
17.092400 0.005713
17.102300 0.005670
17.112200 0.005633
17.122100 0.005579
17.132000 0.005497
17.141900 0.005400
17.151800 0.005316
17.161700 0.005266
17.171600 0.005254
17.181500 0.005272
17.191400 0.005309
17.201300 0.005357
17.211200 0.005410
17.221100 0.005464
17.231000 0.005514
17.240900 0.005564
17.250800 0.005624
17.260700 0.005691
17.270600 0.005749
17.280500 0.005784
17.290400 0.005804
17.300300 0.005844
17.310200 0.005934
17.320100 0.006087
17.330000 0.006282
17.339900 0.006458
17.349800 0.006529
17.359700 0.006436
17.369600 0.006196
17.379500 0.005884
17.389400 0.005578
17.399300 0.005325
17.409200 0.005140
17.419100 0.005020
17.429000 0.004953
17.438900 0.004923
17.448800 0.004912
17.458700 0.004911
17.468600 0.004913
17.478500 0.004922
17.488400 0.004944
17.498300 0.004992
17.508200 0.005086
17.518100 0.005249
17.528000 0.005497
17.537900 0.005828
17.547800 0.006204
17.557700 0.006544
17.567600 0.006743
17.577500 0.006720
17.587400 0.006476
17.597300 0.006087
17.607200 0.005649
17.617100 0.005229
17.627000 0.004859
17.636900 0.004550
17.646800 0.004302
17.656700 0.004114
17.666600 0.003983
17.676500 0.003905
17.686400 0.003873
17.696300 0.003882
17.706200 0.003924
17.716100 0.003994
17.726000 0.004087
17.735900 0.004197
17.745800 0.004308
17.755700 0.004399
17.765600 0.004449
17.775500 0.004440
17.785400 0.004372
17.795300 0.004271
17.805200 0.004169
17.815100 0.004092
17.825000 0.004045
17.834900 0.004024
17.844800 0.004029
17.854700 0.004065
17.864600 0.004141
17.874500 0.004264
17.884400 0.004436
17.894300 0.004656
17.904200 0.004916
17.914100 0.005196
17.924000 0.005459
17.933900 0.005656
17.943800 0.005747
17.953700 0.005719
17.963600 0.005589
17.973500 0.005392
17.983400 0.005166
17.993300 0.004943
18.003200 0.004736
18.013100 0.004547
18.023000 0.004374
18.032900 0.004214
18.042800 0.004069
18.052700 0.003942
18.062600 0.003836
18.072500 0.003749
18.082400 0.003673
18.092300 0.003597
18.102200 0.003517
18.112100 0.003434
18.122000 0.003351
18.131900 0.003278
18.141800 0.003221
18.151700 0.003189
18.161600 0.003183
18.171500 0.003200
18.181400 0.003234
18.191300 0.003284
18.201200 0.003349
18.211100 0.003426
18.221000 0.003502
18.230900 0.003558
18.240800 0.003589
18.250700 0.003601
18.260600 0.003613
18.270500 0.003635
18.280400 0.003666
18.290300 0.003693
18.300200 0.003703
18.310100 0.003686
18.320000 0.003640
18.329900 0.003572
18.339800 0.003499
18.349700 0.003442
18.359600 0.003417
18.369500 0.003430
18.379400 0.003478
18.389300 0.003546
18.399200 0.003613
18.409100 0.003660
18.419000 0.003678
18.428900 0.003676
18.438800 0.003675
18.448700 0.003695
18.458600 0.003743
18.468500 0.003818
18.478400 0.003916
18.488300 0.004028
18.498200 0.004142
18.508100 0.004241
18.518000 0.004322
18.527900 0.004396
18.537800 0.004486
18.547700 0.004617
18.557600 0.004798
18.567500 0.005019
18.577400 0.005251
18.587300 0.005454
18.597200 0.005587
18.607100 0.005633
18.617000 0.005628
18.626900 0.005641
18.636800 0.005735
18.646700 0.005924
18.656600 0.006161
18.666500 0.006335
18.676400 0.006321
18.686300 0.006066
18.696200 0.005632
18.706100 0.005134
18.716000 0.004667
18.725900 0.004272
18.735800 0.003958
18.745700 0.003717
18.755600 0.003536
18.765500 0.003404
18.775400 0.003311
18.785300 0.003248
18.795200 0.003213
18.805100 0.003203
18.815000 0.003218
18.824900 0.003258
18.834800 0.003328
18.844700 0.003425
18.854600 0.003547
18.864500 0.003684
18.874400 0.003821
18.884300 0.003933
18.894200 0.003990
18.904100 0.003979
18.914000 0.003926
18.923900 0.003868
18.933800 0.003837
18.943700 0.003846
18.953600 0.003894
18.963500 0.003956
18.973400 0.003992
18.983300 0.003956
18.993200 0.003835
19.003100 0.003658
19.013000 0.003472
19.022900 0.003313
19.032800 0.003197
19.042700 0.003124
19.052600 0.003086
19.062500 0.003073
19.072400 0.003069
19.082300 0.003060
19.092200 0.003041
19.102100 0.003019
19.112000 0.003009
19.121900 0.003025
19.131800 0.003070
19.141700 0.003141
19.151600 0.003232
19.161500 0.003348
19.171400 0.003500
19.181300 0.003699
19.191200 0.003933
19.201100 0.004150
19.211000 0.004270
19.220900 0.004226
19.230800 0.004017
19.240700 0.003707
19.250600 0.003374
19.260500 0.003070
19.270400 0.002819
19.280300 0.002623
19.290200 0.002475
19.300100 0.002362
19.310000 0.002273
19.319900 0.002198
19.329800 0.002134
19.339700 0.002079
19.349600 0.002030
19.359500 0.001985
19.369400 0.001942
19.379300 0.001905
19.389200 0.001875
19.399100 0.001854
19.409000 0.001841
19.418900 0.001833
19.428800 0.001824
19.438700 0.001814
19.448600 0.001805
19.458500 0.001801
19.468400 0.001801
19.478300 0.001804
19.488200 0.001801
19.498100 0.001787
19.508000 0.001759
19.517900 0.001721
19.527800 0.001678
19.537700 0.001638
19.547600 0.001602
19.557500 0.001573
19.567400 0.001551
19.577300 0.001533
19.587200 0.001515
19.597100 0.001495
19.607000 0.001472
19.616900 0.001446
19.626800 0.001422
19.636700 0.001401
19.646600 0.001384
19.656500 0.001371
19.666400 0.001360
19.676300 0.001348
19.686200 0.001334
19.696100 0.001318
19.706000 0.001303
19.715900 0.001291
19.725800 0.001284
19.735700 0.001281
19.745600 0.001282
19.755500 0.001287
19.765400 0.001295
19.775300 0.001305
19.785200 0.001316
19.795100 0.001326
19.805000 0.001335
19.814900 0.001342
19.824800 0.001348
19.834700 0.001352
19.844600 0.001354
19.854500 0.001353
19.864400 0.001347
19.874300 0.001339
19.884200 0.001330
19.894100 0.001325
19.904000 0.001325
19.913900 0.001334
19.923800 0.001351
19.933700 0.001377
19.943600 0.001413
19.953500 0.001459
19.963400 0.001514
19.973300 0.001579
19.983200 0.001649
19.993100 0.001719
20.003000 0.001779
20.012900 0.001823
20.022800 0.001848
20.032700 0.001855
20.042600 0.001843
20.052500 0.001810
20.062400 0.001762
20.072300 0.001707
20.082200 0.001656
20.092100 0.001617
20.102000 0.001595
20.111900 0.001593
20.121800 0.001611
20.131700 0.001646
20.141600 0.001698
20.151500 0.001760
20.161400 0.001826
20.171300 0.001889
20.181200 0.001947
20.191100 0.001993
20.201000 0.002020
20.210900 0.002016
20.220800 0.001974
20.230700 0.001902
20.240600 0.001817
20.250500 0.001734
20.260400 0.001665
20.270300 0.001614
20.280200 0.001582
20.290100 0.001565
20.300000 0.001558
20.309900 0.001556
20.319800 0.001553
20.329700 0.001548
20.339600 0.001540
20.349500 0.001530
20.359400 0.001518
20.369300 0.001505
20.379200 0.001493
20.389100 0.001483
20.399000 0.001475
20.408900 0.001470
20.418800 0.001467
20.428700 0.001466
20.438600 0.001470
20.448500 0.001476
20.458400 0.001485
20.468300 0.001495
20.478200 0.001507
20.488100 0.001520
20.498000 0.001531
20.507900 0.001540
20.517800 0.001546
20.527700 0.001546
20.537600 0.001542
20.547500 0.001539
20.557400 0.001545
20.567300 0.001568
20.577200 0.001609
20.587100 0.001661
20.597000 0.001712
20.606900 0.001745
20.616800 0.001750
20.626700 0.001737
20.636600 0.001725
20.646500 0.001731
20.656400 0.001763
20.666300 0.001816
20.676200 0.001871
20.686100 0.001898
20.696000 0.001870
20.705900 0.001785
20.715800 0.001664
20.725700 0.001534
20.735600 0.001414
20.745500 0.001311
20.755400 0.001226
20.765300 0.001156
20.775200 0.001100
20.785100 0.001055
20.795000 0.001018
20.804900 0.000988
20.814800 0.000963
20.824700 0.000942
20.834600 0.000924
20.844500 0.000909
20.854400 0.000896
20.864300 0.000885
20.874200 0.000876
20.884100 0.000869
20.894000 0.000863
20.903900 0.000857
20.913800 0.000852
20.923700 0.000847
20.933600 0.000842
20.943500 0.000837
20.953400 0.000832
20.963300 0.000827
20.973200 0.000822
20.983100 0.000816
20.993000 0.000811
21.002900 0.000805
21.012800 0.000800
21.022700 0.000796
21.032600 0.000793
21.042500 0.000790
21.052400 0.000787
21.062300 0.000785
21.072200 0.000782
21.082100 0.000780
21.092000 0.000778
21.101900 0.000776
21.111800 0.000775
21.121700 0.000775
21.131600 0.000775
21.141500 0.000775
21.151400 0.000775
21.161300 0.000775
21.171200 0.000773
21.181100 0.000771
21.191000 0.000770
21.200900 0.000768
21.210800 0.000767
21.220700 0.000766
21.230600 0.000765
21.240500 0.000764
21.250400 0.000762
21.260300 0.000758
21.270200 0.000754
21.280100 0.000750
21.290000 0.000746
21.299900 0.000744
21.309800 0.000743
21.319700 0.000743
21.329600 0.000744
21.339500 0.000746
21.349400 0.000747
21.359300 0.000749
21.369200 0.000750
21.379100 0.000750
21.389000 0.000750
21.398900 0.000749
21.408800 0.000748
21.418700 0.000747
21.428600 0.000746
21.438500 0.000745
21.448400 0.000743
21.458300 0.000740
21.468200 0.000735
21.478100 0.000728
21.488000 0.000721
21.497900 0.000715
21.507800 0.000709
21.517700 0.000704
21.527600 0.000701
21.537500 0.000699
21.547400 0.000697
21.557300 0.000696
21.567200 0.000695
21.577100 0.000695
21.587000 0.000695
21.596900 0.000695
21.606800 0.000696
21.616700 0.000697
21.626600 0.000699
21.636500 0.000701
21.646400 0.000702
21.656300 0.000704
21.666200 0.000706
21.676100 0.000709
21.686000 0.000712
21.695900 0.000717
21.705800 0.000723
21.715700 0.000730
21.725600 0.000737
21.735500 0.000743
21.745400 0.000744
21.755300 0.000741
21.765200 0.000735
21.775100 0.000729
21.785000 0.000722
21.794900 0.000716
21.804800 0.000709
21.814700 0.000703
21.824600 0.000697
21.834500 0.000692
21.844400 0.000687
21.854300 0.000683
21.864200 0.000680
21.874100 0.000676
21.884000 0.000671
21.893900 0.000666
21.903800 0.000660
21.913700 0.000655
21.923600 0.000650
21.933500 0.000646
21.943400 0.000642
21.953300 0.000638
21.963200 0.000635
21.973100 0.000632
21.983000 0.000629
21.992900 0.000627
22.002800 0.000625
22.012700 0.000623
22.022600 0.000622
22.032500 0.000621
22.042400 0.000621
22.052300 0.000621
22.062200 0.000621
22.072100 0.000621
22.082000 0.000622
22.091900 0.000622
22.101800 0.000622
22.111700 0.000622
22.121600 0.000622
22.131500 0.000622
22.141400 0.000622
22.151300 0.000622
22.161200 0.000621
22.171100 0.000621
22.181000 0.000620
22.190900 0.000620
22.200800 0.000619
22.210700 0.000618
22.220600 0.000616
22.230500 0.000615
22.240400 0.000612
22.250300 0.000610
22.260200 0.000607
22.270100 0.000604
22.280000 0.000601
22.289900 0.000599
22.299800 0.000597
22.309700 0.000595
22.319600 0.000593
22.329500 0.000592
22.339400 0.000591
22.349300 0.000590
22.359200 0.000589
22.369100 0.000588
22.379000 0.000587
22.388900 0.000585
22.398800 0.000584
22.408700 0.000582
22.418600 0.000581
22.428500 0.000580
22.438400 0.000578
22.448300 0.000577
22.458200 0.000576
22.468100 0.000575
22.478000 0.000573
22.487900 0.000572
22.497800 0.000571
22.507700 0.000569
22.517600 0.000568
22.527500 0.000567
22.537400 0.000566
22.547300 0.000565
22.557200 0.000564
22.567100 0.000563
22.577000 0.000562
22.586900 0.000561
22.596800 0.000561
22.606700 0.000560
22.616600 0.000560
22.626500 0.000560
22.636400 0.000560
22.646300 0.000559
22.656200 0.000559
22.666100 0.000558
22.676000 0.000557
22.685900 0.000556
22.695800 0.000555
22.705700 0.000554
22.715600 0.000553
22.725500 0.000552
22.735400 0.000551
22.745300 0.000550
22.755200 0.000549
22.765100 0.000548
22.775000 0.000547
22.784900 0.000546
22.794800 0.000546
22.804700 0.000545
22.814600 0.000545
22.824500 0.000544
22.834400 0.000544
22.844300 0.000544
22.854200 0.000543
22.864100 0.000543
22.874000 0.000544
22.883900 0.000544
22.893800 0.000544
22.903700 0.000545
22.913600 0.000545
22.923500 0.000546
22.933400 0.000546
22.943300 0.000546
22.953200 0.000545
22.963100 0.000544
22.973000 0.000543
22.982900 0.000542
22.992800 0.000542
23.002700 0.000541
23.012600 0.000541
23.022500 0.000540
23.032400 0.000539
23.042300 0.000537
23.052200 0.000536
23.062100 0.000534
23.072000 0.000532
23.081900 0.000531
23.091800 0.000530
23.101700 0.000530
23.111600 0.000529
23.121500 0.000528
23.131400 0.000527
23.141300 0.000526
23.151200 0.000524
23.161100 0.000523
23.171000 0.000522
23.180900 0.000522
23.190800 0.000521
23.200700 0.000520
23.210600 0.000520
23.220500 0.000520
23.230400 0.000520
23.240300 0.000519
23.250200 0.000519
23.260100 0.000519
23.270000 0.000518
23.279900 0.000518
23.289800 0.000518
23.299700 0.000518
23.309600 0.000517
23.319500 0.000517
23.329400 0.000517
23.339300 0.000517
23.349200 0.000517
23.359100 0.000516
23.369000 0.000515
23.378900 0.000515
23.388800 0.000514
23.398700 0.000512
23.408600 0.000511
23.418500 0.000510
23.428400 0.000510
23.438300 0.000509
23.448200 0.000508
23.458100 0.000508
23.468000 0.000507
23.477900 0.000506
23.487800 0.000506
23.497700 0.000505
23.507600 0.000504
23.517500 0.000503
23.527400 0.000502
23.537300 0.000502
23.547200 0.000501
23.557100 0.000501
23.567000 0.000500
23.576900 0.000499
23.586800 0.000498
23.596700 0.000497
23.606600 0.000496
23.616500 0.000496
23.626400 0.000495
23.636300 0.000495
23.646200 0.000494
23.656100 0.000494
23.666000 0.000493
23.675900 0.000493
23.685800 0.000493
23.695700 0.000494
23.705600 0.000495
23.715500 0.000496
23.725400 0.000497
23.735300 0.000499
23.745200 0.000502
23.755100 0.000504
23.765000 0.000506
23.774900 0.000507
23.784800 0.000506
23.794700 0.000503
23.804600 0.000499
23.814500 0.000496
23.824400 0.000493
23.834300 0.000490
23.844200 0.000488
23.854100 0.000486
23.864000 0.000485
23.873900 0.000483
23.883800 0.000482
23.893700 0.000480
23.903600 0.000479
23.913500 0.000478
23.923400 0.000477
23.933300 0.000477
23.943200 0.000476
23.953100 0.000476
23.963000 0.000475
23.972900 0.000475
23.982800 0.000475
23.992700 0.000475
24.002600 0.000475
24.012500 0.000474
24.022400 0.000472
24.032300 0.000471
24.042200 0.000469
24.052100 0.000468
24.062000 0.000467
24.071900 0.000466
24.081800 0.000465
24.091700 0.000464
24.101600 0.000464
24.111500 0.000463
24.121400 0.000463
24.131300 0.000462
24.141200 0.000462
24.151100 0.000462
24.161000 0.000461
24.170900 0.000460
24.180800 0.000460
24.190700 0.000459
24.200600 0.000458
24.210500 0.000458
24.220400 0.000457
24.230300 0.000457
24.240200 0.000456
24.250100 0.000456
24.260000 0.000455
24.269900 0.000454
24.279800 0.000454
24.289700 0.000453
24.299600 0.000452
24.309500 0.000451
24.319400 0.000451
24.329300 0.000450
24.339200 0.000450
24.349100 0.000449
24.359000 0.000448
24.368900 0.000448
24.378800 0.000448
24.388700 0.000447
24.398600 0.000447
24.408500 0.000446
24.418400 0.000446
24.428300 0.000445
24.438200 0.000445
24.448100 0.000444
24.458000 0.000444
24.467900 0.000443
24.477800 0.000442
24.487700 0.000442
24.497600 0.000441
24.507500 0.000441
24.517400 0.000441
24.527300 0.000440
24.537200 0.000440
24.547100 0.000439
24.557000 0.000439
24.566900 0.000438
24.576800 0.000438
24.586700 0.000437
24.596600 0.000436
24.606500 0.000436
24.616400 0.000435
24.626300 0.000435
24.636200 0.000434
24.646100 0.000434
24.656000 0.000433
24.665900 0.000433
24.675800 0.000432
24.685700 0.000432
24.695600 0.000432
24.705500 0.000431
24.715400 0.000431
24.725300 0.000430
24.735200 0.000430
24.745100 0.000429
24.755000 0.000429
24.764900 0.000428
24.774800 0.000428
24.784700 0.000428
24.794600 0.000427
24.804500 0.000427
24.814400 0.000426
24.824300 0.000426
24.834200 0.000426
24.844100 0.000425
24.854000 0.000425
24.863900 0.000425
24.873800 0.000424
24.883700 0.000424
24.893600 0.000424
24.903500 0.000424
24.913400 0.000423
24.923300 0.000423
24.933200 0.000423
24.943100 0.000422
24.953000 0.000421
24.962900 0.000421
24.972800 0.000420
24.982700 0.000419
24.992600 0.000419
25.002500 0.000418
25.012400 0.000418
25.022300 0.000417
25.032200 0.000417
25.042100 0.000416
25.052000 0.000416
25.061900 0.000416
25.071800 0.000415
25.081700 0.000415
25.091600 0.000414
25.101500 0.000414
25.111400 0.000414
25.121300 0.000414
25.131200 0.000414
25.141100 0.000414
25.151000 0.000413
25.160900 0.000413
25.170800 0.000412
25.180700 0.000412
25.190600 0.000411
25.200500 0.000411
25.210400 0.000410
25.220300 0.000410
25.230200 0.000409
25.240100 0.000409
25.250000 0.000409
25.259900 0.000408
25.269800 0.000408
25.279700 0.000407
25.289600 0.000407
25.299500 0.000406
25.309400 0.000406
25.319300 0.000406
25.329200 0.000405
25.339100 0.000405
25.349000 0.000405
25.358900 0.000404
25.368800 0.000404
25.378700 0.000404
25.388600 0.000403
25.398500 0.000403
25.408400 0.000402
25.418300 0.000402
25.428200 0.000401
25.438100 0.000401
25.448000 0.000400
25.457900 0.000400
25.467800 0.000399
25.477700 0.000399
25.487600 0.000399
25.497500 0.000398
25.507400 0.000398
25.517300 0.000398
25.527200 0.000398
25.537100 0.000397
25.547000 0.000397
25.556900 0.000397
25.566800 0.000396
25.576700 0.000396
25.586600 0.000395
25.596500 0.000395
25.606400 0.000394
25.616300 0.000394
25.626200 0.000393
25.636100 0.000393
25.646000 0.000392
25.655900 0.000392
25.665800 0.000392
25.675700 0.000392
25.685600 0.000391
25.695500 0.000391
25.705400 0.000391
25.715300 0.000391
25.725200 0.000391
25.735100 0.000390
25.745000 0.000390
25.754900 0.000390
25.764800 0.000389
25.774700 0.000389
25.784600 0.000388
25.794500 0.000388
25.804400 0.000387
25.814300 0.000386
25.824200 0.000385
25.834100 0.000385
25.844000 0.000384
25.853900 0.000384
25.863800 0.000383
25.873700 0.000383
25.883600 0.000382
25.893500 0.000382
25.903400 0.000381
25.913300 0.000381
25.923200 0.000380
25.933100 0.000380
25.943000 0.000379
25.952900 0.000379
25.962800 0.000378
25.972700 0.000378
25.982600 0.000378
25.992500 0.000377
26.002400 0.000377
26.012300 0.000376
26.022200 0.000376
26.032100 0.000376
26.042000 0.000375
26.051900 0.000375
26.061800 0.000374
26.071700 0.000374
26.081600 0.000374
26.091500 0.000373
26.101400 0.000373
26.111300 0.000373
26.121200 0.000372
26.131100 0.000372
26.141000 0.000371
26.150900 0.000371
26.160800 0.000371
26.170700 0.000370
26.180600 0.000370
26.190500 0.000370
26.200400 0.000369
26.210300 0.000369
26.220200 0.000369
26.230100 0.000368
26.240000 0.000368
26.249900 0.000368
26.259800 0.000367
26.269700 0.000367
26.279600 0.000367
26.289500 0.000367
26.299400 0.000366
26.309300 0.000366
26.319200 0.000366
26.329100 0.000365
26.339000 0.000365
26.348900 0.000364
26.358800 0.000364
26.368700 0.000364
26.378600 0.000363
26.388500 0.000363
26.398400 0.000362
26.408300 0.000362
26.418200 0.000362
26.428100 0.000361
26.438000 0.000361
26.447900 0.000361
26.457800 0.000360
26.467700 0.000360
26.477600 0.000360
26.487500 0.000359
26.497400 0.000359
26.507300 0.000359
26.517200 0.000358
26.527100 0.000358
26.537000 0.000358
26.546900 0.000357
26.556800 0.000357
26.566700 0.000357
26.576600 0.000356
26.586500 0.000356
26.596400 0.000356
26.606300 0.000355
26.616200 0.000355
26.626100 0.000355
26.636000 0.000354
26.645900 0.000354
26.655800 0.000354
26.665700 0.000353
26.675600 0.000353
26.685500 0.000353
26.695400 0.000352
26.705300 0.000352
26.715200 0.000352
26.725100 0.000351
26.735000 0.000351
26.744900 0.000351
26.754800 0.000350
26.764700 0.000350
26.774600 0.000350
26.784500 0.000349
26.794400 0.000349
26.804300 0.000349
26.814200 0.000348
26.824100 0.000348
26.834000 0.000348
26.843900 0.000347
26.853800 0.000347
26.863700 0.000347
26.873600 0.000347
26.883500 0.000346
26.893400 0.000346
26.903300 0.000346
26.913200 0.000346
26.923100 0.000345
26.933000 0.000345
26.942900 0.000345
26.952800 0.000345
26.962700 0.000344
26.972600 0.000344
26.982500 0.000343
26.992400 0.000343
27.002300 0.000343
27.012200 0.000342
27.022100 0.000342
27.032000 0.000342
27.041900 0.000341
27.051800 0.000341
27.061700 0.000341
27.071600 0.000340
27.081500 0.000340
27.091400 0.000340
27.101300 0.000339
27.111200 0.000339
27.121100 0.000339
27.131000 0.000338
27.140900 0.000338
27.150800 0.000338
27.160700 0.000338
27.170600 0.000337
27.180500 0.000337
27.190400 0.000337
27.200300 0.000336
27.210200 0.000336
27.220100 0.000336
27.230000 0.000335
27.239900 0.000335
27.249800 0.000335
27.259700 0.000334
27.269600 0.000334
27.279500 0.000334
27.289400 0.000333
27.299300 0.000333
27.309200 0.000333
27.319100 0.000333
27.329000 0.000332
27.338900 0.000332
27.348800 0.000332
27.358700 0.000331
27.368600 0.000331
27.378500 0.000331
27.388400 0.000331
27.398300 0.000330
27.408200 0.000330
27.418100 0.000330
27.428000 0.000329
27.437900 0.000329
27.447800 0.000329
27.457700 0.000329
27.467600 0.000328
27.477500 0.000328
27.487400 0.000328
27.497300 0.000327
27.507200 0.000327
27.517100 0.000327
27.527000 0.000327
27.536900 0.000326
27.546800 0.000326
27.556700 0.000326
27.566600 0.000325
27.576500 0.000325
27.586400 0.000325
27.596300 0.000325
27.606200 0.000324
27.616100 0.000324
27.626000 0.000324
27.635900 0.000323
27.645800 0.000323
27.655700 0.000323
27.665600 0.000323
27.675500 0.000322
27.685400 0.000322
27.695300 0.000322
27.705200 0.000322
27.715100 0.000321
27.725000 0.000321
27.734900 0.000321
27.744800 0.000321
27.754700 0.000320
27.764600 0.000320
27.774500 0.000320
27.784400 0.000319
27.794300 0.000319
27.804200 0.000319
27.814100 0.000318
27.824000 0.000318
27.833900 0.000318
27.843800 0.000318
27.853700 0.000317
27.863600 0.000317
27.873500 0.000317
27.883400 0.000316
27.893300 0.000316
27.903200 0.000316
27.913100 0.000316
27.923000 0.000315
27.932900 0.000315
27.942800 0.000315
27.952700 0.000315
27.962600 0.000314
27.972500 0.000314
27.982400 0.000314
27.992300 0.000313
28.002200 0.000313
28.012100 0.000313
28.022000 0.000313
28.031900 0.000312
28.041800 0.000312
28.051700 0.000312
28.061600 0.000311
28.071500 0.000311
28.081400 0.000311
28.091300 0.000311
28.101200 0.000310
28.111100 0.000310
28.121000 0.000310
28.130900 0.000310
28.140800 0.000309
28.150700 0.000309
28.160600 0.000309
28.170500 0.000309
28.180400 0.000308
28.190300 0.000308
28.200200 0.000308
28.210100 0.000308
28.220000 0.000307
28.229900 0.000307
28.239800 0.000307
28.249700 0.000306
28.259600 0.000306
28.269500 0.000306
28.279400 0.000306
28.289300 0.000305
28.299200 0.000305
28.309100 0.000305
28.319000 0.000305
28.328900 0.000304
28.338800 0.000304
28.348700 0.000304
28.358600 0.000304
28.368500 0.000303
28.378400 0.000303
28.388300 0.000303
28.398200 0.000303
28.408100 0.000302
28.418000 0.000302
28.427900 0.000302
28.437800 0.000302
28.447700 0.000301
28.457600 0.000301
28.467500 0.000301
28.477400 0.000301
28.487300 0.000300
28.497200 0.000300
28.507100 0.000300
28.517000 0.000300
28.526900 0.000299
28.536800 0.000299
28.546700 0.000299
28.556600 0.000299
28.566500 0.000298
28.576400 0.000298
28.586300 0.000298
28.596200 0.000298
28.606100 0.000297
28.616000 0.000297
28.625900 0.000297
28.635800 0.000297
28.645700 0.000296
28.655600 0.000296
28.665500 0.000296
28.675400 0.000296
28.685300 0.000295
28.695200 0.000295
28.705100 0.000295
28.715000 0.000295
28.724900 0.000294
28.734800 0.000294
28.744700 0.000294
28.754600 0.000294
28.764500 0.000293
28.774400 0.000293
28.784300 0.000293
28.794200 0.000293
28.804100 0.000292
28.814000 0.000292
28.823900 0.000292
28.833800 0.000292
28.843700 0.000292
28.853600 0.000291
28.863500 0.000291
28.873400 0.000291
28.883300 0.000291
28.893200 0.000290
28.903100 0.000290
28.913000 0.000290
28.922900 0.000290
28.932800 0.000289
28.942700 0.000289
28.952600 0.000289
28.962500 0.000289
28.972400 0.000288
28.982300 0.000288
28.992200 0.000288
29.002100 0.000288
29.012000 0.000287
29.021900 0.000287
29.031800 0.000287
29.041700 0.000287
29.051600 0.000287
29.061500 0.000286
29.071400 0.000286
29.081300 0.000286
29.091200 0.000286
29.101100 0.000285
29.111000 0.000285
29.120900 0.000285
29.130800 0.000285
29.140700 0.000284
29.150600 0.000284
29.160500 0.000284
29.170400 0.000284
29.180300 0.000284
29.190200 0.000283
29.200100 0.000283
29.210000 0.000283
29.219900 0.000283
29.229800 0.000282
29.239700 0.000282
29.249600 0.000282
29.259500 0.000282
29.269400 0.000282
29.279300 0.000281
29.289200 0.000281
29.299100 0.000281
29.309000 0.000281
29.318900 0.000280
29.328800 0.000280
29.338700 0.000280
29.348600 0.000280
29.358500 0.000279
29.368400 0.000279
29.378300 0.000279
29.388200 0.000279
29.398100 0.000279
29.408000 0.000278
29.417900 0.000278
29.427800 0.000278
29.437700 0.000278
29.447600 0.000277
29.457500 0.000277
29.467400 0.000277
29.477300 0.000277
29.487200 0.000277
29.497100 0.000276
29.507000 0.000276
29.516900 0.000276
29.526800 0.000276
29.536700 0.000276
29.546600 0.000275
29.556500 0.000275
29.566400 0.000275
29.576300 0.000275
29.586200 0.000274
29.596100 0.000274
29.606000 0.000274
29.615900 0.000274
29.625800 0.000274
29.635700 0.000273
29.645600 0.000273
29.655500 0.000273
29.665400 0.000273
29.675300 0.000272
29.685200 0.000272
29.695100 0.000272
29.705000 0.000272
29.714900 0.000272
29.724800 0.000271
29.734700 0.000271
29.744600 0.000271
29.754500 0.000271
29.764400 0.000271
29.774300 0.000270
29.784200 0.000270
29.794100 0.000270
29.804000 0.000270
29.813900 0.000270
29.823800 0.000269
29.833700 0.000269
29.843600 0.000269
29.853500 0.000269
29.863400 0.000268
29.873300 0.000268
29.883200 0.000268
29.893100 0.000268
29.903000 0.000268
29.912900 0.000267
29.922800 0.000267
29.932700 0.000267
29.942600 0.000267
29.952500 0.000267
29.962400 0.000266
29.972300 0.000266
29.982200 0.000266
29.992100 0.000266
30.002000 0.000266
30.011900 0.000265
30.021800 0.000265
30.031700 0.000265
30.041600 0.000265
30.051500 0.000265
30.061400 0.000264
30.071300 0.000264
30.081200 0.000264
30.091100 0.000264
30.101000 0.000263
30.110900 0.000263
30.120800 0.000263
30.130700 0.000263
30.140600 0.000263
30.150500 0.000262
30.160400 0.000262
30.170300 0.000262
30.180200 0.000262
30.190100 0.000262
30.200000 0.000261
30.209900 0.000261
30.219800 0.000261
30.229700 0.000261
30.239600 0.000261
30.249500 0.000260
30.259400 0.000260
30.269300 0.000260
30.279200 0.000260
30.289100 0.000260
30.299000 0.000259
30.308900 0.000259
30.318800 0.000259
30.328700 0.000259
30.338600 0.000259
30.348500 0.000258
30.358400 0.000258
30.368300 0.000258
30.378200 0.000258
30.388100 0.000258
30.398000 0.000258
30.407900 0.000257
30.417800 0.000257
30.427700 0.000257
30.437600 0.000257
30.447500 0.000257
30.457400 0.000256
30.467300 0.000256
30.477200 0.000256
30.487100 0.000256
30.497000 0.000256
30.506900 0.000255
30.516800 0.000255
30.526700 0.000255
30.536600 0.000255
30.546500 0.000255
30.556400 0.000254
30.566300 0.000254
30.576200 0.000254
30.586100 0.000254
30.596000 0.000254
30.605900 0.000253
30.615800 0.000253
30.625700 0.000253
30.635600 0.000253
30.645500 0.000253
30.655400 0.000252
30.665300 0.000252
30.675200 0.000252
30.685100 0.000252
30.695000 0.000252
30.704900 0.000252
30.714800 0.000251
30.724700 0.000251
30.734600 0.000251
30.744500 0.000251
30.754400 0.000251
30.764300 0.000250
30.774200 0.000250
30.784100 0.000250
30.794000 0.000250
30.803900 0.000250
30.813800 0.000249
30.823700 0.000249
30.833600 0.000249
30.843500 0.000249
30.853400 0.000249
30.863300 0.000249
30.873200 0.000248
30.883100 0.000248
30.893000 0.000248
30.902900 0.000248
30.912800 0.000248
30.922700 0.000247
30.932600 0.000247
30.942500 0.000247
30.952400 0.000247
30.962300 0.000247
30.972200 0.000247
30.982100 0.000246
30.992000 0.000246
31.001900 0.000246
31.011800 0.000246
31.021700 0.000246
31.031600 0.000245
31.041500 0.000245
31.051400 0.000245
31.061300 0.000245
31.071200 0.000245
31.081100 0.000245
31.091000 0.000244
31.100900 0.000244
31.110800 0.000244
31.120700 0.000244
31.130600 0.000244
31.140500 0.000243
31.150400 0.000243
31.160300 0.000243
31.170200 0.000243
31.180100 0.000243
31.190000 0.000243
31.199900 0.000242
31.209800 0.000242
31.219700 0.000242
31.229600 0.000242
31.239500 0.000242
31.249400 0.000241
31.259300 0.000241
31.269200 0.000241
31.279100 0.000241
31.289000 0.000241
31.298900 0.000241
31.308800 0.000240
31.318700 0.000240
31.328600 0.000240
31.338500 0.000240
31.348400 0.000240
31.358300 0.000240
31.368200 0.000239
31.378100 0.000239
31.388000 0.000239
31.397900 0.000239
31.407800 0.000239
31.417700 0.000239
31.427600 0.000238
31.437500 0.000238
31.447400 0.000238
31.457300 0.000238
31.467200 0.000238
31.477100 0.000237
31.487000 0.000237
31.496900 0.000237
31.506800 0.000237
31.516700 0.000237
31.526600 0.000237
31.536500 0.000236
31.546400 0.000236
31.556300 0.000236
31.566200 0.000236
31.576100 0.000236
31.586000 0.000236
31.595900 0.000235
31.605800 0.000235
31.615700 0.000235
31.625600 0.000235
31.635500 0.000235
31.645400 0.000235
31.655300 0.000234
31.665200 0.000234
31.675100 0.000234
31.685000 0.000234
31.694900 0.000234
31.704800 0.000234
31.714700 0.000233
31.724600 0.000233
31.734500 0.000233
31.744400 0.000233
31.754300 0.000233
31.764200 0.000233
31.774100 0.000232
31.784000 0.000232
31.793900 0.000232
31.803800 0.000232
31.813700 0.000232
31.823600 0.000232
31.833500 0.000231
31.843400 0.000231
31.853300 0.000231
31.863200 0.000231
31.873100 0.000231
31.883000 0.000231
31.892900 0.000230
31.902800 0.000230
31.912700 0.000230
31.922600 0.000230
31.932500 0.000230
31.942400 0.000230
31.952300 0.000229
31.962200 0.000229
31.972100 0.000229
31.982000 0.000229
31.991900 0.000229
32.001800 0.000229
32.011700 0.000228
32.021600 0.000228
32.031500 0.000228
32.041400 0.000228
32.051300 0.000228
32.061200 0.000228
32.071100 0.000227
32.081000 0.000227
32.090900 0.000227
32.100800 0.000227
32.110700 0.000227
32.120600 0.000227
32.130500 0.000227
32.140400 0.000226
32.150300 0.000226
32.160200 0.000226
32.170100 0.000226
32.180000 0.000226
32.189900 0.000226
32.199800 0.000225
32.209700 0.000225
32.219600 0.000225
32.229500 0.000225
32.239400 0.000225
32.249300 0.000225
32.259200 0.000224
32.269100 0.000224
32.279000 0.000224
32.288900 0.000224
32.298800 0.000224
32.308700 0.000224
32.318600 0.000224
32.328500 0.000223
32.338400 0.000223
32.348300 0.000223
32.358200 0.000223
32.368100 0.000223
32.378000 0.000223
32.387900 0.000222
32.397800 0.000222
32.407700 0.000222
32.417600 0.000222
32.427500 0.000222
32.437400 0.000222
32.447300 0.000221
32.457200 0.000221
32.467100 0.000221
32.477000 0.000221
32.486900 0.000221
32.496800 0.000221
32.506700 0.000221
32.516600 0.000220
32.526500 0.000220
32.536400 0.000220
32.546300 0.000220
32.556200 0.000220
32.566100 0.000220
32.576000 0.000219
32.585900 0.000219
32.595800 0.000219
32.605700 0.000219
32.615600 0.000219
32.625500 0.000219
32.635400 0.000219
32.645300 0.000218
32.655200 0.000218
32.665100 0.000218
32.675000 0.000218
32.684900 0.000218
32.694800 0.000218
32.704700 0.000218
32.714600 0.000217
32.724500 0.000217
32.734400 0.000217
32.744300 0.000217
32.754200 0.000217
32.764100 0.000217
32.774000 0.000216
32.783900 0.000216
32.793800 0.000216
32.803700 0.000216
32.813600 0.000216
32.823500 0.000216
32.833400 0.000216
32.843300 0.000215
32.853200 0.000215
32.863100 0.000215
32.873000 0.000215
32.882900 0.000215
32.892800 0.000215
32.902700 0.000215
32.912600 0.000214
32.922500 0.000214
32.932400 0.000214
32.942300 0.000214
32.952200 0.000214
32.962100 0.000214
32.972000 0.000214
32.981900 0.000213
32.991800 0.000213
33.001700 0.000213
33.011600 0.000213
33.021500 0.000213
33.031400 0.000213
33.041300 0.000213
33.051200 0.000212
33.061100 0.000212
33.071000 0.000212
33.080900 0.000212
33.090800 0.000212
33.100700 0.000212
33.110600 0.000212
33.120500 0.000211
33.130400 0.000211
33.140300 0.000211
33.150200 0.000211
33.160100 0.000211
33.170000 0.000211
33.179900 0.000211
33.189800 0.000210
33.199700 0.000210
33.209600 0.000210
33.219500 0.000210
33.229400 0.000210
33.239300 0.000210
33.249200 0.000210
33.259100 0.000209
33.269000 0.000209
33.278900 0.000209
33.288800 0.000209
33.298700 0.000209
33.308600 0.000209
33.318500 0.000209
33.328400 0.000208
33.338300 0.000208
33.348200 0.000208
33.358100 0.000208
33.368000 0.000208
33.377900 0.000208
33.387800 0.000208
33.397700 0.000207
33.407600 0.000207
33.417500 0.000207
33.427400 0.000207
33.437300 0.000207
33.447200 0.000207
33.457100 0.000207
33.467000 0.000206
33.476900 0.000206
33.486800 0.000206
33.496700 0.000206
33.506600 0.000206
33.516500 0.000206
33.526400 0.000206
33.536300 0.000205
33.546200 0.000205
33.556100 0.000205
33.566000 0.000205
33.575900 0.000205
33.585800 0.000205
33.595700 0.000205
33.605600 0.000205
33.615500 0.000204
33.625400 0.000204
33.635300 0.000204
33.645200 0.000204
33.655100 0.000204
33.665000 0.000204
33.674900 0.000204
33.684800 0.000203
33.694700 0.000203
33.704600 0.000203
33.714500 0.000203
33.724400 0.000203
33.734300 0.000203
33.744200 0.000203
33.754100 0.000203
33.764000 0.000202
33.773900 0.000202
33.783800 0.000202
33.793700 0.000202
33.803600 0.000202
33.813500 0.000202
33.823400 0.000202
33.833300 0.000201
33.843200 0.000201
33.853100 0.000201
33.863000 0.000201
33.872900 0.000201
33.882800 0.000201
33.892700 0.000201
33.902600 0.000201
33.912500 0.000200
33.922400 0.000200
33.932300 0.000200
33.942200 0.000200
33.952100 0.000200
33.962000 0.000200
33.971900 0.000200
33.981800 0.000199
33.991700 0.000199
34.001600 0.000199
34.011500 0.000199
34.021400 0.000199
34.031300 0.000199
34.041200 0.000199
34.051100 0.000199
34.061000 0.000198
34.070900 0.000198
34.080800 0.000198
34.090700 0.000198
34.100600 0.000198
34.110500 0.000198
34.120400 0.000198
34.130300 0.000198
34.140200 0.000197
34.150100 0.000197
34.160000 0.000197
34.169900 0.000197
34.179800 0.000197
34.189700 0.000197
34.199600 0.000197
34.209500 0.000196
34.219400 0.000196
34.229300 0.000196
34.239200 0.000196
34.249100 0.000196
34.259000 0.000196
34.268900 0.000196
34.278800 0.000196
34.288700 0.000195
34.298600 0.000195
34.308500 0.000195
34.318400 0.000195
34.328300 0.000195
34.338200 0.000195
34.348100 0.000195
34.358000 0.000195
34.367900 0.000194
34.377800 0.000194
34.387700 0.000194
34.397600 0.000194
34.407500 0.000194
34.417400 0.000194
34.427300 0.000194
34.437200 0.000194
34.447100 0.000193
34.457000 0.000193
34.466900 0.000193
34.476800 0.000193
34.486700 0.000193
34.496600 0.000193
34.506500 0.000193
34.516400 0.000193
34.526300 0.000192
34.536200 0.000192
34.546100 0.000192
34.556000 0.000192
34.565900 0.000192
34.575800 0.000192
34.585700 0.000192
34.595600 0.000192
34.605500 0.000191
34.615400 0.000191
34.625300 0.000191
34.635200 0.000191
34.645100 0.000191
34.655000 0.000191
34.664900 0.000191
34.674800 0.000191
34.684700 0.000190
34.694600 0.000190
34.704500 0.000190
34.714400 0.000190
34.724300 0.000190
34.734200 0.000190
34.744100 0.000190
34.754000 0.000190
34.763900 0.000190
34.773800 0.000189
34.783700 0.000189
34.793600 0.000189
34.803500 0.000189
34.813400 0.000189
34.823300 0.000189
34.833200 0.000189
34.843100 0.000189
34.853000 0.000188
34.862900 0.000188
34.872800 0.000188
34.882700 0.000188
34.892600 0.000188
34.902500 0.000188
34.912400 0.000188
34.922300 0.000188
34.932200 0.000187
34.942100 0.000187
34.952000 0.000187
34.961900 0.000187
34.971800 0.000187
34.981700 0.000187
34.991600 0.000187
35.001500 0.000187
35.011400 0.000187
35.021300 0.000186
35.031200 0.000186
35.041100 0.000186
35.051000 0.000186
35.060900 0.000186
35.070800 0.000186
35.080700 0.000186
35.090600 0.000186
35.100500 0.000185
35.110400 0.000185
35.120300 0.000185
35.130200 0.000185
35.140100 0.000185
35.150000 0.000185
35.159900 0.000185
35.169800 0.000185
35.179700 0.000185
35.189600 0.000184
35.199500 0.000184
35.209400 0.000184
35.219300 0.000184
35.229200 0.000184
35.239100 0.000184
35.249000 0.000184
35.258900 0.000184
35.268800 0.000184
35.278700 0.000183
35.288600 0.000183
35.298500 0.000183
35.308400 0.000183
35.318300 0.000183
35.328200 0.000183
35.338100 0.000183
35.348000 0.000183
35.357900 0.000182
35.367800 0.000182
35.377700 0.000182
35.387600 0.000182
35.397500 0.000182
35.407400 0.000182
35.417300 0.000182
35.427200 0.000182
35.437100 0.000182
35.447000 0.000181
35.456900 0.000181
35.466800 0.000181
35.476700 0.000181
35.486600 0.000181
35.496500 0.000181
35.506400 0.000181
35.516300 0.000181
35.526200 0.000181
35.536100 0.000180
35.546000 0.000180
35.555900 0.000180
35.565800 0.000180
35.575700 0.000180
35.585600 0.000180
35.595500 0.000180
35.605400 0.000180
35.615300 0.000180
35.625200 0.000179
35.635100 0.000179
35.645000 0.000179
35.654900 0.000179
35.664800 0.000179
35.674700 0.000179
35.684600 0.000179
35.694500 0.000179
35.704400 0.000179
35.714300 0.000178
35.724200 0.000178
35.734100 0.000178
35.744000 0.000178
35.753900 0.000178
35.763800 0.000178
35.773700 0.000178
35.783600 0.000178
35.793500 0.000178
35.803400 0.000177
35.813300 0.000177
35.823200 0.000177
35.833100 0.000177
35.843000 0.000177
35.852900 0.000177
35.862800 0.000177
35.872700 0.000177
35.882600 0.000177
35.892500 0.000176
35.902400 0.000176
35.912300 0.000176
35.922200 0.000176
35.932100 0.000176
35.942000 0.000176
35.951900 0.000176
35.961800 0.000176
35.971700 0.000176
35.981600 0.000176
35.991500 0.000175
36.001400 0.000175
36.011300 0.000175
36.021200 0.000175
36.031100 0.000175
36.041000 0.000175
36.050900 0.000175
36.060800 0.000175
36.070700 0.000175
36.080600 0.000174
36.090500 0.000174
36.100400 0.000174
36.110300 0.000174
36.120200 0.000174
36.130100 0.000174
36.140000 0.000174
36.149900 0.000174
36.159800 0.000174
36.169700 0.000173
36.179600 0.000173
36.189500 0.000173
36.199400 0.000173
36.209300 0.000173
36.219200 0.000173
36.229100 0.000173
36.239000 0.000173
36.248900 0.000173
36.258800 0.000173
36.268700 0.000172
36.278600 0.000172
36.288500 0.000172
36.298400 0.000172
36.308300 0.000172
36.318200 0.000172
36.328100 0.000172
36.338000 0.000172
36.347900 0.000172
36.357800 0.000172
36.367700 0.000171
36.377600 0.000171
36.387500 0.000171
36.397400 0.000171
36.407300 0.000171
36.417200 0.000171
36.427100 0.000171
36.437000 0.000171
36.446900 0.000171
36.456800 0.000170
36.466700 0.000170
36.476600 0.000170
36.486500 0.000170
36.496400 0.000170
36.506300 0.000170
36.516200 0.000170
36.526100 0.000170
36.536000 0.000170
36.545900 0.000170
36.555800 0.000169
36.565700 0.000169
36.575600 0.000169
36.585500 0.000169
36.595400 0.000169
36.605300 0.000169
36.615200 0.000169
36.625100 0.000169
36.635000 0.000169
36.644900 0.000169
36.654800 0.000168
36.664700 0.000168
36.674600 0.000168
36.684500 0.000168
36.694400 0.000168
36.704300 0.000168
36.714200 0.000168
36.724100 0.000168
36.734000 0.000168
36.743900 0.000168
36.753800 0.000167
36.763700 0.000167
36.773600 0.000167
36.783500 0.000167
36.793400 0.000167
36.803300 0.000167
36.813200 0.000167
36.823100 0.000167
36.833000 0.000167
36.842900 0.000167
36.852800 0.000166
36.862700 0.000166
36.872600 0.000166
36.882500 0.000166
36.892400 0.000166
36.902300 0.000166
36.912200 0.000166
36.922100 0.000166
36.932000 0.000166
36.941900 0.000166
36.951800 0.000165
36.961700 0.000165
36.971600 0.000165
36.981500 0.000165
36.991400 0.000165
37.001300 0.000165
37.011200 0.000165
37.021100 0.000165
37.031000 0.000165
37.040900 0.000165
37.050800 0.000165
37.060700 0.000164
37.070600 0.000164
37.080500 0.000164
37.090400 0.000164
37.100300 0.000164
37.110200 0.000164
37.120100 0.000164
37.130000 0.000164
37.139900 0.000164
37.149800 0.000164
37.159700 0.000163
37.169600 0.000163
37.179500 0.000163
37.189400 0.000163
37.199300 0.000163
37.209200 0.000163
37.219100 0.000163
37.229000 0.000163
37.238900 0.000163
37.248800 0.000163
37.258700 0.000162
37.268600 0.000162
37.278500 0.000162
37.288400 0.000162
37.298300 0.000162
37.308200 0.000162
37.318100 0.000162
37.328000 0.000162
37.337900 0.000162
37.347800 0.000162
37.357700 0.000162
37.367600 0.000161
37.377500 0.000161
37.387400 0.000161
37.397300 0.000161
37.407200 0.000161
37.417100 0.000161
37.427000 0.000161
37.436900 0.000161
37.446800 0.000161
37.456700 0.000161
37.466600 0.000161
37.476500 0.000160
37.486400 0.000160
37.496300 0.000160
37.506200 0.000160
37.516100 0.000160
37.526000 0.000160
37.535900 0.000160
37.545800 0.000160
37.555700 0.000160
37.565600 0.000160
37.575500 0.000159
37.585400 0.000159
37.595300 0.000159
37.605200 0.000159
37.615100 0.000159
37.625000 0.000159
37.634900 0.000159
37.644800 0.000159
37.654700 0.000159
37.664600 0.000159
37.674500 0.000159
37.684400 0.000158
37.694300 0.000158
37.704200 0.000158
37.714100 0.000158
37.724000 0.000158
37.733900 0.000158
37.743800 0.000158
37.753700 0.000158
37.763600 0.000158
37.773500 0.000158
37.783400 0.000158
37.793300 0.000157
37.803200 0.000157
37.813100 0.000157
37.823000 0.000157
37.832900 0.000157
37.842800 0.000157
37.852700 0.000157
37.862600 0.000157
37.872500 0.000157
37.882400 0.000157
37.892300 0.000157
37.902200 0.000156
37.912100 0.000156
37.922000 0.000156
37.931900 0.000156
37.941800 0.000156
37.951700 0.000156
37.961600 0.000156
37.971500 0.000156
37.981400 0.000156
37.991300 0.000156
38.001200 0.000156
38.011100 0.000156
38.021000 0.000155
38.030900 0.000155
38.040800 0.000155
38.050700 0.000155
38.060600 0.000155
38.070500 0.000155
38.080400 0.000155
38.090300 0.000155
38.100200 0.000155
38.110100 0.000155
38.120000 0.000155
38.129900 0.000154
38.139800 0.000154
38.149700 0.000154
38.159600 0.000154
38.169500 0.000154
38.179400 0.000154
38.189300 0.000154
38.199200 0.000154
38.209100 0.000154
38.219000 0.000154
38.228900 0.000154
38.238800 0.000153
38.248700 0.000153
38.258600 0.000153
38.268500 0.000153
38.278400 0.000153
38.288300 0.000153
38.298200 0.000153
38.308100 0.000153
38.318000 0.000153
38.327900 0.000153
38.337800 0.000153
38.347700 0.000153
38.357600 0.000152
38.367500 0.000152
38.377400 0.000152
38.387300 0.000152
38.397200 0.000152
38.407100 0.000152
38.417000 0.000152
38.426900 0.000152
38.436800 0.000152
38.446700 0.000152
38.456600 0.000152
38.466500 0.000151
38.476400 0.000151
38.486300 0.000151
38.496200 0.000151
38.506100 0.000151
38.516000 0.000151
38.525900 0.000151
38.535800 0.000151
38.545700 0.000151
38.555600 0.000151
38.565500 0.000151
38.575400 0.000151
38.585300 0.000150
38.595200 0.000150
38.605100 0.000150
38.615000 0.000150
38.624900 0.000150
38.634800 0.000150
38.644700 0.000150
38.654600 0.000150
38.664500 0.000150
38.674400 0.000150
38.684300 0.000150
38.694200 0.000150
38.704100 0.000149
38.714000 0.000149
38.723900 0.000149
38.733800 0.000149
38.743700 0.000149
38.753600 0.000149
38.763500 0.000149
38.773400 0.000149
38.783300 0.000149
38.793200 0.000149
38.803100 0.000149
38.813000 0.000149
38.822900 0.000148
38.832800 0.000148
38.842700 0.000148
38.852600 0.000148
38.862500 0.000148
38.872400 0.000148
38.882300 0.000148
38.892200 0.000148
38.902100 0.000148
38.912000 0.000148
38.921900 0.000148
38.931800 0.000148
38.941700 0.000147
38.951600 0.000147
38.961500 0.000147
38.971400 0.000147
38.981300 0.000147
38.991200 0.000147
39.001100 0.000147
39.011000 0.000147
39.020900 0.000147
39.030800 0.000147
39.040700 0.000147
39.050600 0.000147
39.060500 0.000147
39.070400 0.000146
39.080300 0.000146
39.090200 0.000146
39.100100 0.000146
39.110000 0.000146
39.119900 0.000146
39.129800 0.000146
39.139700 0.000146
39.149600 0.000146
39.159500 0.000146
39.169400 0.000146
39.179300 0.000146
39.189200 0.000145
39.199100 0.000145
39.209000 0.000145
39.218900 0.000145
39.228800 0.000145
39.238700 0.000145
39.248600 0.000145
39.258500 0.000145
39.268400 0.000145
39.278300 0.000145
39.288200 0.000145
39.298100 0.000145
39.308000 0.000145
39.317900 0.000144
39.327800 0.000144
39.337700 0.000144
39.347600 0.000144
39.357500 0.000144
39.367400 0.000144
39.377300 0.000144
39.387200 0.000144
39.397100 0.000144
39.407000 0.000144
39.416900 0.000144
39.426800 0.000144
39.436700 0.000143
39.446600 0.000143
39.456500 0.000143
39.466400 0.000143
39.476300 0.000143
39.486200 0.000143
39.496100 0.000143
39.506000 0.000143
39.515900 0.000143
39.525800 0.000143
39.535700 0.000143
39.545600 0.000143
39.555500 0.000143
39.565400 0.000142
39.575300 0.000142
39.585200 0.000142
39.595100 0.000142
39.605000 0.000142
39.614900 0.000142
39.624800 0.000142
39.634700 0.000142
39.644600 0.000142
39.654500 0.000142
39.664400 0.000142
39.674300 0.000142
39.684200 0.000142
39.694100 0.000141
39.704000 0.000141
39.713900 0.000141
39.723800 0.000141
39.733700 0.000141
39.743600 0.000141
39.753500 0.000141
39.763400 0.000141
39.773300 0.000141
39.783200 0.000141
39.793100 0.000141
39.803000 0.000141
39.812900 0.000141
39.822800 0.000140
39.832700 0.000140
39.842600 0.000140
39.852500 0.000140
39.862400 0.000140
39.872300 0.000140
39.882200 0.000140
39.892100 0.000140
39.902000 0.000140
39.911900 0.000140
39.921800 0.000140
39.931700 0.000140
39.941600 0.000140
39.951500 0.000139
39.961400 0.000139
39.971300 0.000139
39.981200 0.000139
39.991100 0.000139
40.001000 0.000139
40.010900 0.000139
40.020800 0.000139
40.030700 0.000139
40.040600 0.000139
40.050500 0.000139
40.060400 0.000139
40.070300 0.000139
40.080200 0.000139
40.090100 0.000138
40.100000 0.000138
40.109900 0.000138
40.119800 0.000138
40.129700 0.000138
40.139600 0.000138
40.149500 0.000138
40.159400 0.000138
40.169300 0.000138
40.179200 0.000138
40.189100 0.000138
40.199000 0.000138
40.208900 0.000138
40.218800 0.000137
40.228700 0.000137
40.238600 0.000137
40.248500 0.000137
40.258400 0.000137
40.268300 0.000137
40.278200 0.000137
40.288100 0.000137
40.298000 0.000137
40.307900 0.000137
40.317800 0.000137
40.327700 0.000137
40.337600 0.000137
40.347500 0.000137
40.357400 0.000136
40.367300 0.000136
40.377200 0.000136
40.387100 0.000136
40.397000 0.000136
40.406900 0.000136
40.416800 0.000136
40.426700 0.000136
40.436600 0.000136
40.446500 0.000136
40.456400 0.000136
40.466300 0.000136
40.476200 0.000136
40.486100 0.000136
40.496000 0.000135
40.505900 0.000135
40.515800 0.000135
40.525700 0.000135
40.535600 0.000135
40.545500 0.000135
40.555400 0.000135
40.565300 0.000135
40.575200 0.000135
40.585100 0.000135
40.595000 0.000135
40.604900 0.000135
40.614800 0.000135
40.624700 0.000135
40.634600 0.000134
40.644500 0.000134
40.654400 0.000134
40.664300 0.000134
40.674200 0.000134
40.684100 0.000134
40.694000 0.000134
40.703900 0.000134
40.713800 0.000134
40.723700 0.000134
40.733600 0.000134
40.743500 0.000134
40.753400 0.000134
40.763300 0.000134
40.773200 0.000133
40.783100 0.000133
40.793000 0.000133
40.802900 0.000133
40.812800 0.000133
40.822700 0.000133
40.832600 0.000133
40.842500 0.000133
40.852400 0.000133
40.862300 0.000133
40.872200 0.000133
40.882100 0.000133
40.892000 0.000133
40.901900 0.000133
40.911800 0.000132
40.921700 0.000132
40.931600 0.000132
40.941500 0.000132
40.951400 0.000132
40.961300 0.000132
40.971200 0.000132
40.981100 0.000132
40.991000 0.000132
41.000900 0.000132
41.010800 0.000132
41.020700 0.000132
41.030600 0.000132
41.040500 0.000132
41.050400 0.000132
41.060300 0.000131
41.070200 0.000131
41.080100 0.000131
41.090000 0.000131
41.099900 0.000131
41.109800 0.000131
41.119700 0.000131
41.129600 0.000131
41.139500 0.000131
41.149400 0.000131
41.159300 0.000131
41.169200 0.000131
41.179100 0.000131
41.189000 0.000131
41.198900 0.000131
41.208800 0.000130
41.218700 0.000130
41.228600 0.000130
41.238500 0.000130
41.248400 0.000130
41.258300 0.000130
41.268200 0.000130
41.278100 0.000130
41.288000 0.000130
41.297900 0.000130
41.307800 0.000130
41.317700 0.000130
41.327600 0.000130
41.337500 0.000130
41.347400 0.000129
41.357300 0.000129
41.367200 0.000129
41.377100 0.000129
41.387000 0.000129
41.396900 0.000129
41.406800 0.000129
41.416700 0.000129
41.426600 0.000129
41.436500 0.000129
41.446400 0.000129
41.456300 0.000129
41.466200 0.000129
41.476100 0.000129
41.486000 0.000129
41.495900 0.000128
41.505800 0.000128
41.515700 0.000128
41.525600 0.000128
41.535500 0.000128
41.545400 0.000128
41.555300 0.000128
41.565200 0.000128
41.575100 0.000128
41.585000 0.000128
41.594900 0.000128
41.604800 0.000128
41.614700 0.000128
41.624600 0.000128
41.634500 0.000128
41.644400 0.000128
41.654300 0.000127
41.664200 0.000127
41.674100 0.000127
41.684000 0.000127
41.693900 0.000127
41.703800 0.000127
41.713700 0.000127
41.723600 0.000127
41.733500 0.000127
41.743400 0.000127
41.753300 0.000127
41.763200 0.000127
41.773100 0.000127
41.783000 0.000127
41.792900 0.000127
41.802800 0.000126
41.812700 0.000126
41.822600 0.000126
41.832500 0.000126
41.842400 0.000126
41.852300 0.000126
41.862200 0.000126
41.872100 0.000126
41.882000 0.000126
41.891900 0.000126
41.901800 0.000126
41.911700 0.000126
41.921600 0.000126
41.931500 0.000126
41.941400 0.000126
41.951300 0.000126
41.961200 0.000125
41.971100 0.000125
41.981000 0.000125
41.990900 0.000125
42.000800 0.000125
42.010700 0.000125
42.020600 0.000125
42.030500 0.000125
42.040400 0.000125
42.050300 0.000125
42.060200 0.000125
42.070100 0.000125
42.080000 0.000125
42.089900 0.000125
42.099800 0.000125
42.109700 0.000124
42.119600 0.000124
42.129500 0.000124
42.139400 0.000124
42.149300 0.000124
42.159200 0.000124
42.169100 0.000124
42.179000 0.000124
42.188900 0.000124
42.198800 0.000124
42.208700 0.000124
42.218600 0.000124
42.228500 0.000124
42.238400 0.000124
42.248300 0.000124
42.258200 0.000124
42.268100 0.000123
42.278000 0.000123
42.287900 0.000123
42.297800 0.000123
42.307700 0.000123
42.317600 0.000123
42.327500 0.000123
42.337400 0.000123
42.347300 0.000123
42.357200 0.000123
42.367100 0.000123
42.377000 0.000123
42.386900 0.000123
42.396800 0.000123
42.406700 0.000123
42.416600 0.000123
42.426500 0.000123
42.436400 0.000122
42.446300 0.000122
42.456200 0.000122
42.466100 0.000122
42.476000 0.000122
42.485900 0.000122
42.495800 0.000122
42.505700 0.000122
42.515600 0.000122
42.525500 0.000122
42.535400 0.000122
42.545300 0.000122
42.555200 0.000122
42.565100 0.000122
42.575000 0.000122
42.584900 0.000122
42.594800 0.000121
42.604700 0.000121
42.614600 0.000121
42.624500 0.000121
42.634400 0.000121
42.644300 0.000121
42.654200 0.000121
42.664100 0.000121
42.674000 0.000121
42.683900 0.000121
42.693800 0.000121
42.703700 0.000121
42.713600 0.000121
42.723500 0.000121
42.733400 0.000121
42.743300 0.000121
42.753200 0.000121
42.763100 0.000120
42.773000 0.000120
42.782900 0.000120
42.792800 0.000120
42.802700 0.000120
42.812600 0.000120
42.822500 0.000120
42.832400 0.000120
42.842300 0.000120
42.852200 0.000120
42.862100 0.000120
42.872000 0.000120
42.881900 0.000120
42.891800 0.000120
42.901700 0.000120
42.911600 0.000120
42.921500 0.000119
42.931400 0.000119
42.941300 0.000119
42.951200 0.000119
42.961100 0.000119
42.971000 0.000119
42.980900 0.000119
42.990800 0.000119
43.000700 0.000119
43.010600 0.000119
43.020500 0.000119
43.030400 0.000119
43.040300 0.000119
43.050200 0.000119
43.060100 0.000119
43.070000 0.000119
43.079900 0.000119
43.089800 0.000118
43.099700 0.000118
43.109600 0.000118
43.119500 0.000118
43.129400 0.000118
43.139300 0.000118
43.149200 0.000118
43.159100 0.000118
43.169000 0.000118
43.178900 0.000118
43.188800 0.000118
43.198700 0.000118
43.208600 0.000118
43.218500 0.000118
43.228400 0.000118
43.238300 0.000118
43.248200 0.000118
43.258100 0.000118
43.268000 0.000117
43.277900 0.000117
43.287800 0.000117
43.297700 0.000117
43.307600 0.000117
43.317500 0.000117
43.327400 0.000117
43.337300 0.000117
43.347200 0.000117
43.357100 0.000117
43.367000 0.000117
43.376900 0.000117
43.386800 0.000117
43.396700 0.000117
43.406600 0.000117
43.416500 0.000117
43.426400 0.000117
43.436300 0.000116
43.446200 0.000116
43.456100 0.000116
43.466000 0.000116
43.475900 0.000116
43.485800 0.000116
43.495700 0.000116
43.505600 0.000116
43.515500 0.000116
43.525400 0.000116
43.535300 0.000116
43.545200 0.000116
43.555100 0.000116
43.565000 0.000116
43.574900 0.000116
43.584800 0.000116
43.594700 0.000116
43.604600 0.000116
43.614500 0.000115
43.624400 0.000115
43.634300 0.000115
43.644200 0.000115
43.654100 0.000115
43.664000 0.000115
43.673900 0.000115
43.683800 0.000115
43.693700 0.000115
43.703600 0.000115
43.713500 0.000115
43.723400 0.000115
43.733300 0.000115
43.743200 0.000115
43.753100 0.000115
43.763000 0.000115
43.772900 0.000115
43.782800 0.000115
43.792700 0.000114
43.802600 0.000114
43.812500 0.000114
43.822400 0.000114
43.832300 0.000114
43.842200 0.000114
43.852100 0.000114
43.862000 0.000114
43.871900 0.000114
43.881800 0.000114
43.891700 0.000114
43.901600 0.000114
43.911500 0.000114
43.921400 0.000114
43.931300 0.000114
43.941200 0.000114
43.951100 0.000114
43.961000 0.000114
43.970900 0.000113
43.980800 0.000113
43.990700 0.000113
44.000600 0.000113
44.010500 0.000113
44.020400 0.000113
44.030300 0.000113
44.040200 0.000113
44.050100 0.000113
44.060000 0.000113
44.069900 0.000113
44.079800 0.000113
44.089700 0.000113
44.099600 0.000113
44.109500 0.000113
44.119400 0.000113
44.129300 0.000113
44.139200 0.000113
44.149100 0.000112
44.159000 0.000112
44.168900 0.000112
44.178800 0.000112
44.188700 0.000112
44.198600 0.000112
44.208500 0.000112
44.218400 0.000112
44.228300 0.000112
44.238200 0.000112
44.248100 0.000112
44.258000 0.000112
44.267900 0.000112
44.277800 0.000112
44.287700 0.000112
44.297600 0.000112
44.307500 0.000112
44.317400 0.000112
44.327300 0.000112
44.337200 0.000111
44.347100 0.000111
44.357000 0.000111
44.366900 0.000111
44.376800 0.000111
44.386700 0.000111
44.396600 0.000111
44.406500 0.000111
44.416400 0.000111
44.426300 0.000111
44.436200 0.000111
44.446100 0.000111
44.456000 0.000111
44.465900 0.000111
44.475800 0.000111
44.485700 0.000111
44.495600 0.000111
44.505500 0.000111
44.515400 0.000111
44.525300 0.000110
44.535200 0.000110
44.545100 0.000110
44.555000 0.000110
44.564900 0.000110
44.574800 0.000110
44.584700 0.000110
44.594600 0.000110
44.604500 0.000110
44.614400 0.000110
44.624300 0.000110
44.634200 0.000110
44.644100 0.000110
44.654000 0.000110
44.663900 0.000110
44.673800 0.000110
44.683700 0.000110
44.693600 0.000110
44.703500 0.000110
44.713400 0.000109
44.723300 0.000109
44.733200 0.000109
44.743100 0.000109
44.753000 0.000109
44.762900 0.000109
44.772800 0.000109
44.782700 0.000109
44.792600 0.000109
44.802500 0.000109
44.812400 0.000109
44.822300 0.000109
44.832200 0.000109
44.842100 0.000109
44.852000 0.000109
44.861900 0.000109
44.871800 0.000109
44.881700 0.000109
44.891600 0.000109
44.901500 0.000109
44.911400 0.000108
44.921300 0.000108
44.931200 0.000108
44.941100 0.000108
44.951000 0.000108
44.960900 0.000108
44.970800 0.000108
44.980700 0.000108
44.990600 0.000108
45.000500 0.000108
45.010400 0.000108
45.020300 0.000108
45.030200 0.000108
45.040100 0.000108
45.050000 0.000108
45.059900 0.000108
45.069800 0.000108
45.079700 0.000108
45.089600 0.000108
45.099500 0.000107
45.109400 0.000107
45.119300 0.000107
45.129200 0.000107
45.139100 0.000107
45.149000 0.000107
45.158900 0.000107
45.168800 0.000107
45.178700 0.000107
45.188600 0.000107
45.198500 0.000107
45.208400 0.000107
45.218300 0.000107
45.228200 0.000107
45.238100 0.000107
45.248000 0.000107
45.257900 0.000107
45.267800 0.000107
45.277700 0.000107
45.287600 0.000107
45.297500 0.000106
45.307400 0.000106
45.317300 0.000106
45.327200 0.000106
45.337100 0.000106
45.347000 0.000106
45.356900 0.000106
45.366800 0.000106
45.376700 0.000106
45.386600 0.000106
45.396500 0.000106
45.406400 0.000106
45.416300 0.000106
45.426200 0.000106
45.436100 0.000106
45.446000 0.000106
45.455900 0.000106
45.465800 0.000106
45.475700 0.000106
45.485600 0.000106
45.495500 0.000106
45.505400 0.000105
45.515300 0.000105
45.525200 0.000105
45.535100 0.000105
45.545000 0.000105
45.554900 0.000105
45.564800 0.000105
45.574700 0.000105
45.584600 0.000105
45.594500 0.000105
45.604400 0.000105
45.614300 0.000105
45.624200 0.000105
45.634100 0.000105
45.644000 0.000105
45.653900 0.000105
45.663800 0.000105
45.673700 0.000105
45.683600 0.000105
45.693500 0.000105
45.703400 0.000104
45.713300 0.000104
45.723200 0.000104
45.733100 0.000104
45.743000 0.000104
45.752900 0.000104
45.762800 0.000104
45.772700 0.000104
45.782600 0.000104
45.792500 0.000104
45.802400 0.000104
45.812300 0.000104
45.822200 0.000104
45.832100 0.000104
45.842000 0.000104
45.851900 0.000104
45.861800 0.000104
45.871700 0.000104
45.881600 0.000104
45.891500 0.000104
45.901400 0.000104
45.911300 0.000103
45.921200 0.000103
45.931100 0.000103
45.941000 0.000103
45.950900 0.000103
45.960800 0.000103
45.970700 0.000103
45.980600 0.000103
45.990500 0.000103
46.000400 0.000103
46.010300 0.000103
46.020200 0.000103
46.030100 0.000103
46.040000 0.000103
46.049900 0.000103
46.059800 0.000103
46.069700 0.000103
46.079600 0.000103
46.089500 0.000103
46.099400 0.000103
46.109300 0.000103
46.119200 0.000102
46.129100 0.000102
46.139000 0.000102
46.148900 0.000102
46.158800 0.000102
46.168700 0.000102
46.178600 0.000102
46.188500 0.000102
46.198400 0.000102
46.208300 0.000102
46.218200 0.000102
46.228100 0.000102
46.238000 0.000102
46.247900 0.000102
46.257800 0.000102
46.267700 0.000102
46.277600 0.000102
46.287500 0.000102
46.297400 0.000102
46.307300 0.000102
46.317200 0.000102
46.327100 0.000102
46.337000 0.000101
46.346900 0.000101
46.356800 0.000101
46.366700 0.000101
46.376600 0.000101
46.386500 0.000101
46.396400 0.000101
46.406300 0.000101
46.416200 0.000101
46.426100 0.000101
46.436000 0.000101
46.445900 0.000101
46.455800 0.000101
46.465700 0.000101
46.475600 0.000101
46.485500 0.000101
46.495400 0.000101
46.505300 0.000101
46.515200 0.000101
46.525100 0.000101
46.535000 0.000101
46.544900 0.000101
46.554800 0.000100
46.564700 0.000100
46.574600 0.000100
46.584500 0.000100
46.594400 0.000100
46.604300 0.000100
46.614200 0.000100
46.624100 0.000100
46.634000 0.000100
46.643900 0.000100
46.653800 0.000100
46.663700 0.000100
46.673600 0.000100
46.683500 0.000100
46.693400 0.000100
46.703300 0.000100
46.713200 0.000100
46.723100 0.000100
46.733000 0.000100
46.742900 0.000100
46.752800 0.000100
46.762700 0.000100
46.772600 0.000099
46.782500 0.000099
46.792400 0.000099
46.802300 0.000099
46.812200 0.000099
46.822100 0.000099
46.832000 0.000099
46.841900 0.000099
46.851800 0.000099
46.861700 0.000099
46.871600 0.000099
46.881500 0.000099
46.891400 0.000099
46.901300 0.000099
46.911200 0.000099
46.921100 0.000099
46.931000 0.000099
46.940900 0.000099
46.950800 0.000099
46.960700 0.000099
46.970600 0.000099
46.980500 0.000099
46.990400 0.000099
47.000300 0.000098
47.010200 0.000098
47.020100 0.000098
47.030000 0.000098
47.039900 0.000098
47.049800 0.000098
47.059700 0.000098
47.069600 0.000098
47.079500 0.000098
47.089400 0.000098
47.099300 0.000098
47.109200 0.000098
47.119100 0.000098
47.129000 0.000098
47.138900 0.000098
47.148800 0.000098
47.158700 0.000098
47.168600 0.000098
47.178500 0.000098
47.188400 0.000098
47.198300 0.000098
47.208200 0.000098
47.218100 0.000098
47.228000 0.000097
47.237900 0.000097
47.247800 0.000097
47.257700 0.000097
47.267600 0.000097
47.277500 0.000097
47.287400 0.000097
47.297300 0.000097
47.307200 0.000097
47.317100 0.000097
47.327000 0.000097
47.336900 0.000097
47.346800 0.000097
47.356700 0.000097
47.366600 0.000097
47.376500 0.000097
47.386400 0.000097
47.396300 0.000097
47.406200 0.000097
47.416100 0.000097
47.426000 0.000097
47.435900 0.000097
47.445800 0.000097
47.455700 0.000096
47.465600 0.000096
47.475500 0.000096
47.485400 0.000096
47.495300 0.000096
47.505200 0.000096
47.515100 0.000096
47.525000 0.000096
47.534900 0.000096
47.544800 0.000096
47.554700 0.000096
47.564600 0.000096
47.574500 0.000096
47.584400 0.000096
47.594300 0.000096
47.604200 0.000096
47.614100 0.000096
47.624000 0.000096
47.633900 0.000096
47.643800 0.000096
47.653700 0.000096
47.663600 0.000096
47.673500 0.000096
47.683400 0.000095
47.693300 0.000095
47.703200 0.000095
47.713100 0.000095
47.723000 0.000095
47.732900 0.000095
47.742800 0.000095
47.752700 0.000095
47.762600 0.000095
47.772500 0.000095
47.782400 0.000095
47.792300 0.000095
47.802200 0.000095
47.812100 0.000095
47.822000 0.000095
47.831900 0.000095
47.841800 0.000095
47.851700 0.000095
47.861600 0.000095
47.871500 0.000095
47.881400 0.000095
47.891300 0.000095
47.901200 0.000095
47.911100 0.000095
47.921000 0.000094
47.930900 0.000094
47.940800 0.000094
47.950700 0.000094
47.960600 0.000094
47.970500 0.000094
47.980400 0.000094
47.990300 0.000094
48.000200 0.000094
48.010100 0.000094
48.020000 0.000094
48.029900 0.000094
48.039800 0.000094
48.049700 0.000094
48.059600 0.000094
48.069500 0.000094
48.079400 0.000094
48.089300 0.000094
48.099200 0.000094
48.109100 0.000094
48.119000 0.000094
48.128900 0.000094
48.138800 0.000094
48.148700 0.000094
48.158600 0.000094
48.168500 0.000093
48.178400 0.000093
48.188300 0.000093
48.198200 0.000093
48.208100 0.000093
48.218000 0.000093
48.227900 0.000093
48.237800 0.000093
48.247700 0.000093
48.257600 0.000093
48.267500 0.000093
48.277400 0.000093
48.287300 0.000093
48.297200 0.000093
48.307100 0.000093
48.317000 0.000093
48.326900 0.000093
48.336800 0.000093
48.346700 0.000093
48.356600 0.000093
48.366500 0.000093
48.376400 0.000093
48.386300 0.000093
48.396200 0.000093
48.406100 0.000093
48.416000 0.000092
48.425900 0.000092
48.435800 0.000092
48.445700 0.000092
48.455600 0.000092
48.465500 0.000092
48.475400 0.000092
48.485300 0.000092
48.495200 0.000092
48.505100 0.000092
48.515000 0.000092
48.524900 0.000092
48.534800 0.000092
48.544700 0.000092
48.554600 0.000092
48.564500 0.000092
48.574400 0.000092
48.584300 0.000092
48.594200 0.000092
48.604100 0.000092
48.614000 0.000092
48.623900 0.000092
48.633800 0.000092
48.643700 0.000092
48.653600 0.000092
48.663500 0.000091
48.673400 0.000091
48.683300 0.000091
48.693200 0.000091
48.703100 0.000091
48.713000 0.000091
48.722900 0.000091
48.732800 0.000091
48.742700 0.000091
48.752600 0.000091
48.762500 0.000091
48.772400 0.000091
48.782300 0.000091
48.792200 0.000091
48.802100 0.000091
48.812000 0.000091
48.821900 0.000091
48.831800 0.000091
48.841700 0.000091
48.851600 0.000091
48.861500 0.000091
48.871400 0.000091
48.881300 0.000091
48.891200 0.000091
48.901100 0.000091
48.911000 0.000091
48.920900 0.000090
48.930800 0.000090
48.940700 0.000090
48.950600 0.000090
48.960500 0.000090
48.970400 0.000090
48.980300 0.000090
48.990200 0.000090
49.000100 0.000090
49.010000 0.000090
49.019900 0.000090
49.029800 0.000090
49.039700 0.000090
49.049600 0.000090
49.059500 0.000090
49.069400 0.000090
49.079300 0.000090
49.089200 0.000090
49.099100 0.000090
49.109000 0.000090
49.118900 0.000090
49.128800 0.000090
49.138700 0.000090
49.148600 0.000090
49.158500 0.000090
49.168400 0.000090
49.178300 0.000089
49.188200 0.000089
49.198100 0.000089
49.208000 0.000089
49.217900 0.000089
49.227800 0.000089
49.237700 0.000089
49.247600 0.000089
49.257500 0.000089
49.267400 0.000089
49.277300 0.000089
49.287200 0.000089
49.297100 0.000089
49.307000 0.000089
49.316900 0.000089
49.326800 0.000089
49.336700 0.000089
49.346600 0.000089
49.356500 0.000089
49.366400 0.000089
49.376300 0.000089
49.386200 0.000089
49.396100 0.000089
49.406000 0.000089
49.415900 0.000089
49.425800 0.000089
49.435700 0.000088
49.445600 0.000088
49.455500 0.000088
49.465400 0.000088
49.475300 0.000088
49.485200 0.000088
49.495100 0.000088
49.505000 0.000088
49.514900 0.000088
49.524800 0.000088
49.534700 0.000088
49.544600 0.000088
49.554500 0.000088
49.564400 0.000088
49.574300 0.000088
49.584200 0.000088
49.594100 0.000088
49.604000 0.000088
49.613900 0.000088
49.623800 0.000088
49.633700 0.000088
49.643600 0.000088
49.653500 0.000088
49.663400 0.000088
49.673300 0.000088
49.683200 0.000088
49.693100 0.000088
49.703000 0.000087
49.712900 0.000087
49.722800 0.000087
49.732700 0.000087
49.742600 0.000087
49.752500 0.000087
49.762400 0.000087
49.772300 0.000087
49.782200 0.000087
49.792100 0.000087
49.802000 0.000087
49.811900 0.000087
49.821800 0.000087
49.831700 0.000087
49.841600 0.000087
49.851500 0.000087
49.861400 0.000087
49.871300 0.000087
49.881200 0.000087
49.891100 0.000087
49.901000 0.000087
49.910900 0.000087
49.920800 0.000087
49.930700 0.000087
49.940600 0.000087
49.950500 0.000087
49.960400 0.000087
49.970300 0.000087
49.980200 0.000086
49.990100 0.000086
50.000000 0.000086
